
,aX,aY,aZ,gX,gY,gZ,roll,pitch,yaw,vi
0,0.0,0.0,0.0,0.0,0.0,0.0,0.0,0.0,0.0,0.0
1,-0.34,36.83,-25.35,-26.15,0.0,0.0,0.0,0.0,0.0,0.0
2,-0.34,36.83,-25.35,-26.15,-14.7,5.12,120.76,4.03,0.0,0.0
3,4.22,36.83,-25.35,-26.15,-14.7,5.12,120.76,4.03,43.22,-2.29
4,4.22,41.74,-9.03,18.12,-14.7,5.12,120.76,4.03,43.22,-2.29
5,4.22,41.74,-9.03,18.12,-6.23,-14.88,95.98,33.67,43.22,-2.29
6,-1.65,48.36,-9.03,18.12,-6.23,-14.88,95.98,33.67,41.82,0.13
7,-1.65,48.36,14.58,-9.34,-19.07,-13.27,95.98,33.67,41.82,0.13
8,-1.65,48.36,14.58,-9.34,-19.07,-13.27,77.29,20.55,39.86,0.18
9,-5.15,47.94,-2.01,-9.34,-19.07,-13.27,77.29,20.55,39.86,0.18
10,-5.15,47.94,-2.01,9.61,4.14,-3.77,91.31,20.55,39.86,0.18
11,-5.15,47.94,-2.01,9.61,4.14,-3.77,91.31,-34.24,38.86,3.95
12,11.98,34.55,-29.92,19.33,4.14,-3.77,91.31,-34.24,38.86,3.95
13,11.98,34.55,-29.92,19.33,14.11,-8.87,126.54,21.3,38.86,3.95
14,18.45,34.55,-29.92,19.33,14.11,-8.87,126.54,21.3,37.52,-5.33
15,18.45,19.48,-35.06,60.67,18.41,-8.87,126.54,21.3,37.52,-5.33
16,18.45,19.48,-35.06,60.67,18.41,-4.69,85.2,90.95,36.84,-5.33
17,-14.22,28.55,-35.06,60.67,18.41,-4.69,85.2,90.95,36.84,-5.19
18,-14.22,28.55,49.66,100.0,8.87,-0.89,85.2,90.95,36.84,-5.19
19,-14.22,28.55,49.66,100.0,8.87,-0.89,32.19,-6.82,37.27,11.67
20,3.78,44.14,75.7,100.0,8.87,-0.89,32.19,-6.82,37.27,11.67
21,3.78,44.14,75.7,23.14,-4.2,-2.27,32.19,-6.82,37.27,11.67
22,3.78,44.14,75.7,23.14,-4.2,-2.27,31.46,2.5,36.42,3.42
23,11.2,40.16,50.31,4.42,-4.2,-2.27,31.46,2.5,36.42,3.42
24,11.2,40.16,50.31,4.42,7.41,-5.37,37.92,11.44,36.42,3.42

0,0.0,0.0,0.0,0.0,0.0,0.0,0.0,0.0,0.0,0.0
1,5.65,46.93,6.11,-2.49,0.0,0.0,0.0,0.0,0.0,0.0
2,5.65,46.93,6.11,-2.49,-0.31,0.23,82.63,40.39,0.0,0.0
3,5.65,46.93,6.11,-2.49,-0.31,0.23,82.63,40.39,19.29,-0.16
4,6.52,46.81,6.32,-1.88,0.34,0.23,82.63,40.39,19.29,-0.16
5,6.52,46.81,6.32,-1.88,0.34,-0.25,82.53,48.0,19.29,-0.16
6,6.52,46.79,6.32,-1.88,0.34,-0.25,82.53,48.0,19.25,0.28
7,6.52,46.79,4.37,-2.03,0.74,-0.25,82.53,48.0,19.25,0.28
8,6.52,46.79,4.37,-2.03,0.74,0.85,84.38,55.42,19.35,0.21
9,5.92,46.73,5.08,-2.03,0.74,0.85,84.38,55.42,19.35,0.21
10,5.92,46.73,5.08,-1.25,1.04,0.99,84.02,55.42,19.35,0.21
11,5.92,46.73,5.08,-1.25,1.04,0.99,84.02,50.31,19.5,0.29
12,6.35,46.95,4.92,-1.25,1.04,0.99,84.02,50.31,19.5,0.29
13,6.35,46.95,4.92,-0.83,1.07,0.91,83.97,50.31,19.5,0.29
14,6.35,46.95,4.92,-0.83,1.07,0.91,83.97,51.15,19.64,-0.01
15,5.8,46.96,5.02,-0.8,1.07,0.91,83.97,51.15,19.64,-0.01
16,5.8,46.96,5.02,-0.8,1.19,0.96,84.07,51.56,19.64,-0.01
17,6.07,46.96,5.02,-0.8,1.19,0.96,84.07,51.56,19.78,0.11
18,6.07,46.79,5.86,-0.43,1.42,0.96,84.07,51.56,19.78,0.11
19,6.07,46.79,5.86,-0.43,1.42,1.4,83.29,46.8,19.78,0.11
20,5.95,46.79,5.86,-0.43,1.42,1.4,83.29,46.8,19.97,0.26
21,5.95,46.47,4.93,-0.94,1.57,1.4,83.29,46.8,19.97,0.26
22,5.95,46.47,4.93,-0.94,1.57,1.39,84.82,54.74,19.97,0.26
23,6.65,46.47,4.93,-0.94,1.57,1.39,84.82,54.74,20.2,0.07
24,6.65,45.77,-1.37,-0.07,1.35,1.88,84.82,54.74,20.2,0.07

0,6.48,46.47,1.08,-3.92,3.05,0.54,88.87,69.77,22.01,0.82
1,6.48,46.47,1.08,-3.92,3.05,0.54,88.87,81.29,21.98,-0.77
2,8.15,47.23,4.14,-3.92,3.05,0.54,88.87,81.29,21.98,-0.77
3,8.15,47.23,4.14,-1.08,3.46,-0.3,88.87,81.29,21.98,-0.77
4,8.15,47.23,4.14,-1.08,3.46,-0.3,85.11,62.08,21.97,0.0
5,8.43,46.46,0.37,-1.08,3.46,-0.3,85.11,62.08,21.97,0.0
6,8.43,46.46,0.37,-3.87,0.23,1.67,88.36,62.08,21.97,0.0
7,8.43,46.46,0.37,-3.87,0.23,1.67,88.36,80.5,22.12,-0.17
8,8.17,47.66,7.82,1.51,0.23,1.67,88.36,80.5,22.12,-0.17
9,8.17,47.66,7.82,1.51,1.6,2.25,82.16,52.32,22.12,-0.17
10,6.95,47.3,7.82,1.51,1.6,2.25,82.16,52.32,22.51,0.38
11,6.95,47.3,0.78,-3.0,0.89,2.25,82.16,52.32,22.51,0.38
12,6.95,47.3,0.78,-3.0,0.89,1.7,89.68,85.89,22.82,-0.06
13,6.08,46.18,0.78,-3.0,0.89,1.7,89.68,85.89,22.82,-0.06
14,6.08,46.18,1.18,-0.96,-0.07,1.36,89.68,85.89,22.82,-0.06
15,6.08,46.18,1.18,-0.96,-0.07,1.36,88.84,81.64,23.06,0.14
16,7.4,47.18,4.0,-0.96,-0.07,1.36,88.84,81.64,23.06,0.14
17,7.4,47.18,4.0,0.05,1.68,0.85,86.23,81.64,23.06,0.14
18,7.4,47.18,4.0,0.05,1.68,0.85,86.23,66.64,23.21,0.32
19,8.7,46.92,2.17,0.05,1.68,0.85,86.23,66.64,23.21,0.32
20,8.7,46.92,2.17,-1.65,0.71,0.39,86.97,66.64,23.21,0.32
21,8.7,46.92,2.17,-1.65,0.71,0.39,86.97,73.19,23.29,-0.13
22,7.03,46.49,-0.18,-1.82,0.71,0.39,86.97,73.19,23.29,-0.13
23,7.03,46.49,-0.18,-1.82,1.06,2.09,89.62,85.45,23.29,-0.13
24,6.09,46.49,-0.18,-1.82,1.06,2.09,89.62,85.45,23.61,0.2

0,11.04,42.59,-13.42,-19.7,-7.38,1.48,102.98,33.6,21.06,0.64
1,11.04,42.59,-13.42,-19.7,-7.38,1.48,106.23,40.98,21.39,0.24
2,9.98,43.31,-13.01,-5.23,-7.38,1.48,106.23,40.98,21.39,0.24
3,9.98,43.31,-13.01,-5.23,3.65,-0.15,107.8,37.17,21.39,0.24
4,9.98,43.31,-13.01,-5.23,3.65,-0.15,107.8,37.17,21.48,0.3
5,14.57,43.87,-13.01,-5.23,3.65,-0.15,107.8,37.17,21.48,0.3
6,14.57,43.87,-13.71,-6.92,-0.1,4.06,107.8,37.17,21.48,0.3
7,10.25,43.87,-13.71,-6.92,-0.1,4.06,106.85,43.21,21.93,-1.65
8,10.25,44.26,-13.57,-4.44,-0.1,4.06,106.85,43.21,21.93,-1.65
9,10.25,44.26,-13.57,-4.44,3.52,1.33,107.99,34.55,21.93,-1.65
10,9.33,44.18,-13.57,-4.44,3.52,1.33,107.99,34.55,22.41,-0.12
11,9.33,44.18,-12.9,-0.36,3.2,-0.11,107.99,34.55,22.41,-0.12
12,9.33,44.18,-12.9,-0.36,3.2,-0.11,105.54,35.85,22.48,-0.38
13,10.44,45.07,-12.59,-0.36,3.2,-0.11,105.54,35.85,22.48,-0.38
14,10.44,45.07,-12.59,-0.71,2.69,2.16,106.72,35.85,22.48,-0.38
15,10.44,45.07,-12.59,-0.71,2.69,2.16,106.72,36.71,22.57,0.29
16,9.47,45.59,-10.73,0.18,2.69,2.16,106.72,36.71,22.57,0.29
17,9.47,45.59,-10.73,0.18,-0.15,2.84,104.4,38.39,22.57,0.29
18,9.47,45.59,-10.73,0.18,-0.15,2.84,104.4,38.39,23.08,0.04
19,8.28,46.12,-11.84,3.72,-0.15,2.84,104.4,38.39,23.08,0.04
20,8.28,46.12,-11.84,3.72,0.18,0.06,105.0,37.34,23.08,0.04
21,8.46,46.12,-11.84,3.72,0.18,0.06,105.0,37.34,23.21,0.12
22,8.46,41.81,-21.69,6.51,0.25,0.06,105.0,37.34,23.21,0.12
23,8.46,41.81,-21.69,6.51,0.25,-0.13,117.85,25.27,23.32,0.12
24,11.61,32.65,-21.69,6.51,0.25,-0.13,117.85,25.27,23.32,0.03

0,9.92,42.4,-14.06,-16.3,10.82,-0.5,109.52,38.27,31.26,0.31
1,10.33,42.4,-14.06,-16.3,10.82,-0.5,109.52,38.27,31.26,0.0
2,10.33,45.63,-10.77,-6.38,1.77,-0.5,109.52,38.27,31.26,0.0
3,10.33,45.63,-10.77,-6.38,1.77,1.74,103.63,43.22,31.59,0.0
4,11.17,44.38,-10.77,-6.38,1.77,1.74,103.63,43.22,31.59,-0.43
5,11.17,44.38,-11.9,-4.18,3.7,-2.43,103.63,43.22,31.59,-0.43
6,11.17,44.38,-11.9,-4.18,3.7,-2.43,103.5,51.14,31.34,-0.09
7,12.2,45.15,-8.1,-4.18,3.7,-2.43,103.5,51.14,31.34,-0.09
8,12.2,45.15,-8.1,0.07,3.82,1.11,100.35,51.14,31.34,-0.09
9,12.2,45.15,-8.1,0.07,3.82,1.11,100.35,56.56,31.37,0.15
10,11.51,46.23,-6.91,1.43,3.82,1.11,100.35,56.56,31.37,0.15
11,11.51,46.23,-6.91,1.43,2.09,1.45,99.59,56.56,31.37,0.15
12,11.51,46.23,-6.91,1.43,2.09,1.45,99.59,53.77,31.55,-0.47
13,10.82,46.17,-7.31,1.43,2.09,1.45,99.59,53.77,31.55,-0.47
14,10.82,46.17,-7.31,0.59,2.28,1.26,99.18,53.77,31.55,-0.47
15,10.82,46.17,-7.31,0.59,2.28,1.26,99.18,56.78,31.75,0.66
16,12.36,46.06,-4.81,0.59,2.28,1.26,99.18,56.78,31.75,0.66
17,12.36,46.06,-4.81,0.59,2.28,1.26,99.18,56.78,31.75,0.22
18,11.5,46.06,-4.81,0.59,2.28,1.26,99.18,56.78,31.75,0.22
19,11.5,45.39,-9.28,-1.99,0.25,1.26,99.18,56.78,31.75,0.22
20,11.5,45.39,-9.28,-1.99,0.25,1.1,101.58,56.07,32.04,0.22
21,14.38,43.93,-9.28,-1.99,0.25,1.1,101.58,56.07,32.04,0.18
22,14.38,43.93,-10.42,0.33,3.85,1.04,101.58,56.07,32.04,0.18
23,14.38,43.93,-10.42,0.33,3.85,1.04,104.64,50.08,32.12,-1.21
24,16.67,38.48,-10.42,0.33,3.85,1.04,104.64,50.08,32.12,-1.21

0,7.24,44.22,-12.13,-11.61,-1.04,1.79,105.09,37.34,43.26,-1.37
1,7.24,44.22,-12.13,-11.61,-1.04,1.79,105.09,36.22,44.03,0.17
2,9.49,42.83,-16.93,-6.73,-1.04,1.79,105.09,36.22,44.03,0.17
3,9.49,42.83,-16.93,-6.73,1.35,4.64,110.21,29.18,44.03,0.17
4,5.33,42.83,-16.93,-6.73,1.35,4.64,110.21,29.18,44.41,0.33
5,5.33,43.82,-18.61,-5.26,1.36,4.64,110.21,29.18,44.41,0.33
6,5.33,43.82,-18.61,-5.26,1.36,3.97,112.35,18.93,45.24,0.33
7,6.06,45.01,-18.61,-5.26,1.36,3.97,112.35,18.93,45.24,1.06
8,6.06,45.01,-11.87,-2.76,-3.09,4.05,112.35,18.93,45.24,1.06
9,6.06,45.01,-11.87,-2.76,-3.09,4.05,108.38,21.84,45.95,-0.74
10,5.99,45.68,-15.51,-2.76,-3.09,4.05,108.38,21.84,45.95,-0.74
11,5.99,45.68,-15.51,1.02,1.91,2.25,107.2,21.84,45.95,-0.74
12,5.99,45.68,-15.51,1.02,1.91,2.25,107.2,23.68,46.43,0.29
13,4.2,45.07,-14.25,-3.34,1.91,2.25,107.2,23.68,46.43,0.29
14,4.2,45.07,-14.25,-3.34,0.41,1.8,109.6,21.94,46.43,0.29
15,8.31,45.07,-14.25,-3.34,0.41,1.8,109.6,21.94,46.79,0.98
16,8.31,43.51,-17.94,-1.54,0.67,1.8,109.6,21.94,46.79,0.98
17,8.31,43.51,-17.94,-1.54,0.67,2.74,111.11,23.45,47.03,0.98
18,5.57,43.51,-17.94,-1.54,0.67,2.74,111.11,23.45,47.03,-0.02
19,5.57,42.0,-20.32,-2.39,-0.58,2.74,111.11,23.45,47.03,-0.02
20,5.57,42.0,-20.32,-2.39,-0.58,4.61,115.59,18.54,47.61,-0.02
21,5.52,42.0,-20.32,-2.39,-0.58,4.61,115.59,18.54,47.61,0.18
22,5.52,32.27,-36.96,8.41,-0.23,4.61,115.59,18.54,47.61,0.18
23,5.52,32.27,-36.96,8.41,-0.23,5.14,140.76,7.62,48.52,0.18
24,6.65,12.31,-48.69,8.41,-0.23,5.14,140.76,7.62,48.52,0.14

0,6.33,27.52,-5.43,-70.69,12.16,-3.49,57.39,26.79,62.07,0.33
1,6.33,27.52,-5.43,-73.34,-5.95,6.72,104.13,26.79,62.07,0.33
2,7.19,27.52,-5.43,-73.34,-5.95,6.72,104.13,35.96,62.85,0.22
3,7.19,32.19,-19.68,-50.74,8.96,6.72,104.13,35.96,62.85,0.22
4,7.19,32.19,-19.68,-50.74,8.96,1.87,117.81,23.48,63.27,0.04
5,5.25,35.24,-24.11,-35.12,8.96,1.87,117.81,23.48,63.27,0.04
6,5.25,35.24,-24.11,-35.12,1.53,4.94,123.74,7.03,63.27,0.04
7,5.25,35.24,-24.11,-35.12,1.53,4.94,123.74,7.03,63.94,0.71
8,5.72,39.49,-29.01,-20.25,1.53,4.94,123.74,7.03,63.94,0.71
9,5.72,39.49,-29.01,-20.25,3.63,1.54,125.44,10.38,63.94,0.71
10,0.89,39.49,-29.01,-20.25,3.63,1.54,125.44,10.38,64.37,0.17
11,0.89,42.02,-22.76,-9.0,-1.03,1.54,125.44,10.38,64.37,0.17
12,0.89,42.02,-22.76,-9.0,-1.03,4.77,118.64,-0.67,64.95,0.17
13,1.13,44.6,-22.76,-9.0,-1.03,4.77,118.64,-0.67,64.95,0.81
14,1.13,44.6,-17.15,-1.53,1.89,1.32,118.64,-0.67,64.95,0.81
15,1.13,44.6,-17.15,-1.53,1.89,1.32,111.91,0.88,65.22,0.12
16,1.41,44.77,-17.15,-1.53,1.89,1.32,111.91,0.88,65.22,0.12
17,1.41,44.77,-14.01,-0.49,2.85,-0.15,111.91,0.88,65.22,0.12
18,1.41,44.77,-14.01,-0.49,2.85,-0.15,107.81,4.75,65.17,0.05
19,0.86,43.38,-13.93,-2.66,2.85,-0.15,107.81,4.75,65.17,0.05
20,0.86,43.38,-13.93,-2.66,2.57,-0.8,109.82,7.59,65.17,0.05
21,2.53,43.38,-13.93,-2.66,2.57,-0.8,109.82,7.59,65.07,1.01
22,2.53,34.87,-30.17,-4.61,2.57,-0.8,109.82,7.59,65.07,1.01
23,2.53,34.87,-30.17,-4.61,-0.13,0.74,132.75,3.41,65.07,1.01
24,3.6,34.87,-30.17,-4.61,-0.13,0.74,132.75,3.41,65.03,-1.49

0,4.03,3.14,27.82,-99.98,-18.04,-15.3,-4.63,-7.57,70.34,2.1
1,4.03,3.14,27.82,-99.98,-18.04,-15.3,10.52,0.34,68.3,-1.64
2,-1.12,3.14,27.82,-99.98,-18.04,-15.3,10.52,0.34,68.3,-1.64
3,-1.12,9.59,6.27,-99.98,-24.02,-24.75,10.52,0.34,68.3,-1.64
4,-1.12,9.59,6.27,-99.98,-24.02,-24.75,38.64,32.75,66.08,0.11
5,18.11,9.59,6.27,-99.98,-24.02,-24.75,38.64,32.75,66.08,0.11
6,18.11,13.78,-37.52,-94.57,-26.2,-24.75,38.64,32.75,66.08,0.11
7,18.11,13.78,-37.52,-94.57,-26.2,-12.7,87.71,82.59,62.69,0.11
8,7.88,13.78,-37.52,-94.57,-26.2,-12.7,87.71,82.59,62.69,-0.24
9,7.88,25.78,-40.89,-51.52,-10.44,-12.7,87.71,82.59,62.69,-0.24
10,7.88,25.78,-40.89,-51.52,-10.44,-11.9,144.55,18.24,60.62,-0.24
11,14.65,31.87,-40.89,-51.52,-10.44,-11.9,144.55,18.24,60.62,3.81
12,14.65,31.87,-26.57,-5.72,4.07,-5.97,128.78,18.24,60.62,3.81
13,14.65,31.87,-26.57,-5.72,4.07,-5.97,128.78,25.12,58.95,0.18
14,9.22,39.17,-24.45,-4.85,4.07,-5.97,128.78,25.12,58.95,0.18
15,9.22,39.17,-24.45,-4.85,0.06,-0.69,121.82,20.2,58.95,0.18
16,9.47,41.42,-24.45,-4.85,0.06,-0.69,121.82,20.2,58.62,0.04
17,9.47,41.42,-20.89,-2.95,-0.46,0.07,121.82,20.2,58.62,0.04
18,9.47,41.42,-20.89,-2.95,-0.46,0.07,119.09,25.87,58.54,2.06
19,11.86,36.83,-28.12,-2.95,-0.46,0.07,119.09,25.87,58.54,2.06
20,11.86,36.83,-28.12,0.83,3.51,0.46,128.96,25.87,58.54,2.06
21,11.86,36.83,-28.12,0.83,3.51,0.46,128.96,21.95,58.56,-0.52
22,11.67,31.92,-40.57,0.83,3.51,0.46,128.96,21.95,58.56,-0.52
23,11.67,31.92,-40.57,7.7,-0.26,4.64,146.22,21.95,58.56,-0.52
24,11.67,31.92,-40.57,7.7,-0.26,4.64,146.22,15.82,59.2,-0.92

0,10.71,37.93,-20.12,-13.44,1.79,-7.43,118.34,28.65,83.15,1.37
1,13.62,40.93,-20.03,-13.44,1.79,-7.43,118.34,28.65,83.15,1.37
2,13.62,40.93,-20.03,-6.54,0.78,-3.63,117.13,29.01,83.15,1.37
3,9.29,40.93,-20.03,-6.54,0.78,-3.63,117.13,29.01,82.5,0.03
4,9.29,43.39,-19.33,-6.56,0.78,-3.63,117.13,29.01,82.5,0.03
5,9.29,43.39,-19.33,-6.56,-0.67,-1.79,113.98,22.93,82.5,0.03
6,13.3,43.39,-19.33,-6.56,-0.67,-1.79,113.98,22.93,82.22,0.1
7,13.3,44.39,-19.12,-9.67,-1.51,-1.79,113.98,22.93,82.22,0.1
8,13.3,44.39,-19.12,-9.67,-1.51,-10.1,112.83,37.51,80.81,0.1
9,12.89,43.17,-19.12,-9.67,-1.51,-10.1,112.83,37.51,80.81,0.24
10,12.89,43.17,-18.18,-0.18,1.93,2.12,112.83,37.51,80.81,0.24
11,12.89,43.17,-18.18,-0.18,1.93,2.12,111.81,36.45,80.9,0.37
12,11.84,43.68,-13.84,-0.18,1.93,2.12,111.81,36.45,80.9,0.37
13,11.84,43.68,-13.84,-1.93,4.01,1.8,109.09,36.45,80.9,0.37
14,11.84,43.68,-13.84,-1.93,4.01,1.8,109.09,38.23,81.35,0.05
15,11.78,44.69,-16.49,-3.27,4.01,1.8,109.09,38.23,81.35,0.05
16,11.78,44.69,-16.49,-3.27,0.23,2.12,110.8,35.15,81.35,0.05
17,13.53,44.69,-16.49,-3.27,0.23,2.12,110.8,35.15,81.62,0.85
18,13.53,40.84,-21.03,-3.85,4.64,2.12,110.8,35.15,81.62,0.85
19,13.53,40.84,-21.03,-3.85,4.64,2.32,116.95,32.75,81.62,0.85
20,10.35,40.44,-21.03,-3.85,4.64,2.32,116.95,32.75,81.96,0.33
21,10.35,40.44,-27.2,0.13,1.86,3.5,116.95,32.75,81.96,0.33
22,10.35,40.44,-27.2,0.13,1.86,3.5,125.43,24.57,82.57,0.33
23,10.35,40.44,-27.2,0.13,1.86,3.5,125.43,24.57,82.57,0.46
24,13.62,31.94,-36.52,11.12,1.86,3.5,125.43,24.57,82.57,0.46

0,3.85,-23.6,65.68,-38.8,0.17,8.53,-19.32,1.55,97.4,-3.13
1,3.85,-23.6,65.68,-38.8,0.17,8.53,-19.32,0.21,98.83,-0.07
2,-4.57,-21.0,68.74,-38.8,0.17,8.53,-19.32,0.21,98.83,-0.07
3,-4.57,-21.0,68.74,-46.98,2.26,8.64,-15.05,0.21,98.83,-0.07
4,-4.57,-21.0,68.74,-46.98,2.26,8.64,-15.05,-3.6,100.38,-0.29
5,-7.05,-15.96,79.45,-46.98,2.26,8.64,-15.05,-3.6,100.38,-0.29
6,-7.05,-15.96,79.45,-65.57,6.02,8.7,-10.83,-4.68,100.38,-0.29
7,-7.05,-15.96,79.45,-65.57,6.02,8.7,-10.83,-4.68,101.62,3.96
8,-9.49,-6.29,63.17,-99.98,6.02,8.7,-10.83,-4.68,101.62,3.96
9,-9.49,-6.29,63.17,-99.98,5.26,6.85,-5.29,-8.53,101.62,3.96
10,3.29,-6.29,63.17,-99.98,5.26,6.85,-5.29,-8.53,102.9,2.79
11,3.29,-5.3,32.19,-99.98,-9.28,6.85,-5.29,-8.53,102.9,2.79
12,3.29,-5.3,32.19,-99.98,-9.28,4.53,-6.02,-3.82,103.42,2.79
13,0.52,-5.3,32.19,-99.98,-9.28,4.53,-6.02,-3.82,103.42,-0.33
14,0.52,2.11,-8.9,-99.98,-14.69,-1.7,-6.02,-3.82,103.42,-0.33
15,0.52,2.11,-8.9,-99.98,-14.69,-1.7,128.32,19.7,103.6,0.14
16,6.7,13.53,-8.9,-99.98,-14.69,-1.7,128.32,19.7,103.6,0.14
17,6.7,13.53,-30.17,-97.24,-5.31,-1.95,128.32,19.7,103.6,0.14
18,6.7,13.53,-30.17,-97.24,-5.31,-1.95,148.63,7.67,103.4,3.04
19,6.99,22.53,-40.9,-45.25,-5.31,-1.95,148.63,7.67,103.4,3.04
20,6.99,22.53,-40.9,-45.25,-3.2,-8.8,148.63,7.67,103.4,3.04
21,13.06,22.53,-40.9,-45.25,-3.2,-8.8,150.17,6.11,103.05,0.13
22,13.06,20.61,-54.82,-12.25,-3.2,-8.8,150.17,6.11,103.05,0.13
23,13.06,20.61,-54.82,-12.25,-4.9,-4.73,159.85,13.26,103.05,0.13
24,7.94,20.61,-54.82,-12.25,-4.9,-4.73,159.85,13.26,102.08,0.18

0,4.85,45.65,-17.83,-11.9,3.79,-0.11,102.85,2.87,113.38,-0.74
1,4.85,45.65,-17.83,-11.9,3.79,-0.11,109.86,12.86,113.54,-0.1
2,-2.52,49.27,-13.01,-11.9,3.79,-0.11,109.86,12.86,113.54,-0.1
3,-2.52,49.27,-13.01,-2.03,7.12,-1.63,109.86,12.86,113.54,-0.1
4,-2.52,49.27,-13.01,-2.03,7.12,-1.63,106.14,3.36,113.52,-0.1
5,6.78,44.61,-9.85,-2.17,7.12,-1.63,106.14,3.36,113.52,1.08
6,6.78,44.61,-9.85,-2.17,9.71,-5.18,104.68,3.36,113.52,1.08
7,6.78,44.61,-9.85,-2.17,9.71,-5.18,104.68,28.47,112.68,-1.1
8,3.97,44.48,-9.85,-2.17,9.71,-5.18,104.68,28.47,112.68,-1.1
9,3.97,44.48,-15.14,-4.39,5.13,-0.44,104.68,28.47,112.68,-1.1
10,4.7,44.48,-15.14,-4.39,5.13,-0.44,108.61,15.84,112.56,0.35
11,4.7,43.06,-17.86,-4.39,5.13,-0.44,108.61,15.84,112.56,0.35
12,4.7,43.06,-17.86,-3.18,1.18,-1.22,112.07,17.71,112.56,0.35
13,4.81,43.06,-17.86,-3.18,1.18,-1.22,112.07,17.71,112.39,0.23
14,4.81,41.51,-16.74,5.44,1.1,-1.22,112.07,17.71,112.39,0.23
15,4.81,41.51,-16.74,5.44,1.1,0.52,113.06,14.62,112.39,0.23
16,7.61,39.34,-19.11,5.44,1.1,0.52,113.06,14.62,112.41,0.2
17,7.61,39.34,-19.11,8.03,1.6,0.56,113.06,14.62,112.41,0.2
18,7.61,39.34,-19.11,8.03,1.6,0.56,120.5,19.99,112.53,0.33
19,8.6,27.77,-37.92,8.03,1.6,0.56,120.5,19.99,112.53,0.33
20,8.6,27.77,-37.92,20.9,1.86,3.82,147.43,19.99,112.53,0.33
21,8.6,27.77,-37.92,20.9,1.86,3.82,147.43,13.56,113.05,-1.04
22,6.31,-2.99,-70.0,20.9,1.86,3.82,147.43,13.56,113.05,-1.04
23,6.31,-2.99,-70.0,63.57,15.58,3.28,-100.76,13.56,113.05,-1.04
24,5.56,-2.99,-70.0,63.57,15.58,3.28,-100.76,65.29,113.68,-3.74

0,3.83,47.06,-4.21,4.87,0.73,0.61,94.95,33.84,115.09,0.43
1,7.69,47.06,-4.21,4.87,0.73,0.61,94.95,46.13,115.25,0.81
2,7.69,47.96,-5.67,0.67,1.64,0.61,94.95,46.13,115.25,0.81
3,7.69,47.96,-5.67,0.67,1.64,1.16,96.84,45.56,115.35,0.81
4,2.61,48.33,-5.67,0.67,1.64,1.16,96.84,45.56,115.35,-1.28
5,2.61,48.33,-7.99,-2.26,0.52,1.36,96.84,45.56,115.35,-1.28
6,2.61,48.33,-7.99,-2.26,0.52,1.36,98.96,27.17,115.66,0.26
7,6.04,47.09,-7.99,-2.26,0.52,1.36,98.96,27.17,115.66,0.26
8,6.04,47.09,-8.91,0.09,0.58,3.69,100.96,27.17,115.66,0.26
9,6.04,47.09,-8.91,0.09,0.58,3.69,100.96,25.83,116.08,0.13
10,3.03,47.34,-7.12,-1.1,0.58,3.69,100.96,25.83,116.08,0.13
11,3.03,47.34,-7.12,-1.1,-1.76,3.65,98.49,21.56,116.08,0.13
12,3.03,47.34,-7.12,-1.1,-1.76,3.65,98.49,21.56,116.65,0.01
13,3.54,46.92,-6.84,-1.09,-1.76,3.65,98.49,21.56,116.65,0.01
14,3.54,46.92,-6.84,-1.09,0.33,2.46,98.6,25.9,116.65,0.01
15,3.03,46.92,-6.84,-1.09,0.33,2.46,98.6,25.9,117.1,0.1
16,3.03,46.82,-8.24,-2.43,0.13,2.46,98.6,25.9,117.1,0.1
17,3.03,46.82,-8.24,-2.43,0.13,1.48,100.83,23.5,117.43,0.1
18,5.05,44.33,-8.24,-2.43,0.13,1.48,100.83,23.5,117.43,0.1
19,5.05,44.33,-11.49,-1.89,1.12,0.68,100.83,23.5,117.43,0.1
20,5.05,44.33,-11.49,-1.89,1.12,0.68,106.03,21.78,117.57,0.07
21,7.27,38.76,-11.49,-1.89,1.12,0.68,106.03,21.78,117.57,0.07
22,7.27,38.76,-20.31,4.49,4.24,1.08,106.03,21.78,117.57,0.07
23,7.27,38.76,-20.31,4.49,4.24,1.08,120.16,18.94,117.73,0.07
24,9.92,24.47,-20.31,4.49,4.24,1.08,120.16,18.94,117.73,-0.68

0,17.67,20.37,-23.99,-99.98,-20.12,-9.53,81.16,64.4,117.3,0.54
1,17.67,20.37,-23.99,-99.98,-20.12,-9.53,137.29,21.05,115.58,-2.43
2,7.1,32.8,-36.65,-99.98,-20.12,-9.53,137.29,21.05,115.58,-2.43
3,7.1,32.8,-36.65,-35.71,3.82,-16.71,139.3,21.05,115.58,-2.43
4,7.1,32.8,-36.65,-35.71,3.82,-16.71,139.3,16.33,114.0,0.31
5,12.52,35.63,-25.85,-14.09,3.82,-16.71,139.3,16.33,114.0,0.31
6,12.52,35.63,-25.85,-14.09,2.16,-6.88,126.79,23.42,114.0,0.31
7,12.36,35.63,-25.85,-14.09,2.16,-6.88,126.79,23.42,112.32,0.08
8,12.36,36.64,-29.63,-14.2,-3.75,-6.88,126.79,23.42,112.32,0.08
9,12.36,36.64,-29.63,-14.2,-3.75,-3.68,128.33,21.9,111.67,0.08
10,7.26,36.64,-29.63,-14.2,-3.75,-3.68,128.33,21.9,111.67,0.71
11,7.26,40.46,-21.44,-2.11,-1.8,0.68,128.33,21.9,111.67,0.71
12,7.26,40.46,-21.44,-2.11,-1.8,0.68,116.52,19.9,111.63,0.71
13,15.44,40.04,-21.44,-2.11,-1.8,0.68,116.52,19.9,111.63,0.5
14,15.44,40.04,-25.9,-5.47,-1.84,-0.88,116.52,19.9,111.63,0.5
15,15.44,40.04,-25.9,-5.47,-1.84,-0.88,121.17,29.38,111.41,-1.81
16,9.61,42.18,-20.23,-5.47,-1.84,-0.88,121.17,29.38,111.41,-1.81
17,9.61,42.18,-20.23,-0.22,2.73,2.59,117.12,29.38,111.41,-1.81
18,9.61,42.18,-20.23,-0.22,2.73,2.59,117.12,23.43,111.84,0.69
19,11.38,42.56,-22.75,-0.06,2.73,2.59,117.12,23.43,111.84,0.69
20,11.38,42.56,-22.75,-0.06,2.82,1.51,116.81,25.87,111.84,0.69
21,8.15,42.56,-22.75,-0.06,2.82,1.51,116.81,25.87,112.14,-0.15
22,8.15,40.9,-23.12,-2.55,2.13,1.51,116.81,25.87,112.14,-0.15
23,8.15,40.9,-23.12,-2.55,2.13,-0.1,119.36,22.0,112.27,-0.15
24,12.59,31.92,-23.12,-2.55,2.13,-0.1,119.36,22.0,112.27,0.27

0,8.28,45.02,-8.6,-1.91,-0.66,1.73,100.75,44.16,124.88,0.85
1,8.28,45.02,-8.6,-1.91,-0.66,1.73,100.75,47.24,125.16,-1.89
2,7.65,44.85,-10.81,-1.91,-0.66,1.73,100.75,47.24,125.16,-1.89
3,7.65,44.85,-10.81,-1.14,-0.18,4.1,102.87,47.24,125.16,-1.89
4,6.36,44.85,-10.81,-1.14,-0.18,4.1,102.87,32.0,125.69,0.28
5,6.36,47.81,-8.55,0.14,-0.18,4.1,102.87,32.0,125.69,0.28
6,6.36,47.81,-8.55,0.14,3.63,-0.53,100.22,45.2,125.84,0.28
7,8.45,47.81,-8.55,0.14,3.63,-0.53,100.22,45.2,125.84,0.07
8,8.45,45.91,-9.71,-0.31,0.83,-0.53,100.22,45.2,125.84,0.07
9,8.45,45.91,-9.71,-0.31,0.83,0.13,101.77,42.14,125.81,0.07
10,8.52,45.79,-9.71,-0.31,0.83,0.13,101.77,42.14,125.81,0.64
11,8.52,45.79,-9.26,0.31,0.55,0.42,101.77,42.14,125.81,0.64
12,8.52,45.79,-9.26,0.31,0.55,0.42,101.9,41.19,125.88,0.03
13,10.3,45.21,-11.32,0.31,0.55,0.42,101.9,41.19,125.88,0.03
14,10.3,45.21,-11.32,-1.03,0.71,0.64,101.19,41.19,125.88,0.03
15,10.3,45.21,-11.32,-1.03,0.71,0.64,101.19,49.27,126.03,0.21
16,7.06,46.15,-8.53,-1.03,0.71,0.64,101.19,49.27,126.03,0.21
17,7.06,46.15,-8.53,-1.66,-0.37,4.02,102.45,49.27,126.03,0.21
18,7.06,46.15,-8.53,-1.66,-0.37,4.02,102.45,33.55,126.59,-0.82
19,8.69,41.95,-16.09,2.54,-0.37,4.02,102.45,33.55,126.59,-0.82
20,8.69,41.95,-16.09,2.54,3.78,-0.1,111.93,26.68,126.59,-0.82
21,10.07,41.95,-16.09,2.54,3.78,-0.1,111.93,26.68,126.81,-0.48
22,10.07,35.44,-34.27,12.36,5.37,-0.1,111.93,26.68,126.81,-0.48
23,10.07,35.44,-34.27,12.36,5.37,0.1,134.01,19.68,126.81,-0.48
24,13.04,15.44,-34.27,12.36,5.37,0.1,134.01,19.68,126.81,0.22

0,3.56,43.94,-1.94,-5.93,7.69,-7.5,95.53,69.1,139.79,0.22
1,3.56,43.94,-1.94,-5.93,7.69,-3.8,93.93,57.92,139.79,0.22
2,1.98,47.59,-1.94,-5.93,7.69,-3.8,93.93,57.92,139.45,0.14
3,1.98,47.59,-10.52,-14.94,1.01,-0.17,100.42,57.92,139.45,0.14
4,1.98,47.59,-10.52,-14.94,1.01,-0.17,100.42,10.89,139.25,-0.67
5,4.42,46.61,-10.52,-14.94,1.01,-0.17,100.42,10.89,139.25,-0.67
6,4.42,46.61,-14.06,-9.78,6.35,-4.64,100.42,10.89,139.25,-0.67
7,4.42,46.61,-14.06,-9.78,6.35,-4.64,106.33,13.68,139.0,-0.67
8,3.74,46.61,-14.06,-9.78,6.35,-4.64,106.33,13.68,139.0,-0.3
9,3.74,46.29,-10.23,-1.15,2.23,-4.64,106.33,13.68,139.0,-0.3
10,3.74,46.29,-10.23,-1.15,2.23,-1.12,100.34,19.9,138.72,-0.3
11,4.51,46.45,-6.21,-1.15,2.23,-1.12,100.34,19.9,138.72,-0.96
12,4.51,46.45,-6.21,-1.51,0.55,-2.3,98.12,19.9,138.72,-0.96
13,5.82,46.45,-6.21,-1.51,0.55,-2.3,98.12,37.66,138.46,0.07
14,5.82,46.09,-6.12,-0.48,0.55,-2.3,98.12,37.66,138.46,0.07
15,5.82,46.09,-6.12,-0.48,0.55,-2.3,98.12,37.66,138.46,0.07
16,5.81,45.98,-9.95,-0.48,0.55,-2.3,98.12,37.66,138.46,0.07
17,5.81,45.98,-9.95,-2.38,-1.18,1.14,101.59,37.66,138.46,0.07
18,5.81,45.98,-9.95,-2.38,-1.18,1.14,101.59,34.66,138.42,0.16
19,4.07,47.66,-7.58,-0.41,-1.18,1.14,101.59,34.66,138.42,0.16
20,4.07,47.66,-7.58,-0.41,-0.83,1.51,99.53,31.4,138.42,0.16
21,6.09,47.66,-7.58,-0.41,-0.83,1.51,99.53,31.4,138.73,0.05
22,6.09,46.55,-9.7,-0.96,1.91,1.51,99.53,31.4,138.73,0.05
23,6.09,46.55,-9.7,-0.96,1.91,0.47,103.31,32.49,138.81,0.05
24,9.26,42.91,-9.7,-0.96,1.91,0.47,103.31,32.49,138.81,0.23

0,5.46,39.43,-16.8,-9.14,4.37,-4.77,129.11,11.5,133.41,0.08
1,5.46,39.43,-16.8,-9.14,4.37,-4.77,113.92,16.42,132.22,0.06
2,6.74,42.51,-16.8,-9.14,4.37,-4.77,113.92,16.42,132.22,0.06
3,6.74,42.51,-19.26,-10.06,2.05,0.13,113.92,16.42,132.22,0.06
4,6.74,42.51,-19.26,-10.06,2.05,0.13,112.93,17.54,132.08,-0.25
5,6.0,45.25,-17.14,-10.06,2.05,0.13,112.93,17.54,132.08,-0.25
6,6.0,45.25,-17.14,-2.47,4.6,-2.03,110.35,17.54,132.08,-0.25
7,6.0,45.25,-17.14,-2.47,4.6,-2.03,110.35,19.13,131.93,0.2
8,4.25,46.84,-15.61,-2.47,4.6,-2.03,110.35,19.13,131.93,0.2
9,4.25,46.84,-15.61,-3.43,-0.98,1.16,108.66,19.13,131.93,0.2
10,8.48,46.84,-15.61,-3.43,-0.98,1.16,108.66,20.77,131.94,0.07
11,8.48,44.18,-16.68,-3.73,-0.98,1.16,108.66,20.77,131.94,0.07
12,8.48,44.18,-16.68,-3.73,1.05,-0.39,110.26,22.37,131.84,0.07
13,8.32,44.09,-14.71,-3.73,1.05,-0.39,110.26,22.37,131.84,-1.08
14,8.32,44.09,-14.71,-3.3,2.51,-0.39,110.02,22.37,131.84,-1.08
15,8.32,44.09,-14.71,-3.3,2.51,-0.39,110.02,27.83,131.87,0.39
16,6.32,43.78,-17.83,-2.89,1.88,-0.39,110.02,27.83,131.87,0.39
17,6.32,43.78,-17.83,-2.89,1.88,0.23,112.09,20.13,131.87,0.39
18,6.71,42.25,-17.83,-2.89,1.88,0.23,112.09,20.13,131.99,0.19
19,6.71,42.25,-20.68,-2.25,2.35,-0.85,112.09,20.13,131.99,0.19
20,6.71,42.25,-20.68,-2.25,2.35,-0.85,115.75,19.71,131.89,0.19
21,7.76,33.68,-20.68,-2.25,2.35,-0.85,115.75,19.71,131.89,0.12
22,7.76,33.68,-30.63,0.43,1.98,0.34,135.59,19.71,131.89,0.12
23,7.76,33.68,-30.63,0.43,1.98,0.34,135.59,13.22,131.88,0.15
24,8.13,14.84,-47.38,0.43,1.98,0.34,135.59,13.22,131.88,0.15

0,8.58,44.7,-15.1,-8.18,2.22,-2.05,110.57,29.65,132.49,-0.16
1,8.58,44.7,-15.1,-8.18,2.22,-2.05,108.32,24.0,132.3,-1.32
2,6.41,47.24,-12.93,-8.18,2.22,-2.05,108.32,24.0,132.3,-1.32
3,6.41,47.24,-12.93,-5.51,0.44,-0.11,106.75,24.0,132.3,-1.32
4,6.41,47.24,-12.93,-5.51,0.44,-0.11,106.75,31.76,132.24,0.86
5,7.04,44.26,-18.99,-5.51,0.44,-0.11,106.75,31.76,132.24,0.86
6,7.04,44.26,-18.99,-4.99,1.45,0.92,113.07,20.86,132.24,0.86
7,5.55,44.26,-18.99,-4.99,1.45,0.92,113.07,20.86,132.47,0.04
8,5.55,45.64,-13.58,-2.45,1.45,0.92,113.07,20.86,132.47,0.04
9,5.55,45.64,-13.58,-2.45,1.93,1.09,107.79,20.86,132.47,0.04
10,5.55,45.64,-13.58,-2.45,1.93,1.09,107.79,26.75,132.7,1.06
11,6.83,44.37,-16.29,-3.22,1.93,1.09,107.79,26.75,132.7,1.06
12,6.83,44.37,-16.29,-3.22,0.58,0.94,109.15,26.75,132.7,1.06
13,6.83,44.37,-16.29,-3.22,0.58,0.94,109.15,22.07,132.83,-0.74
14,6.07,44.69,-16.15,-0.74,0.58,0.94,109.15,22.07,132.83,-0.74
15,6.07,44.69,-16.15,-0.74,2.36,-1.07,109.84,26.15,132.77,-0.74
16,7.52,45.52,-16.15,-0.74,2.36,-1.07,109.84,26.15,132.77,0.31
17,7.52,45.52,-12.58,1.67,3.02,-0.01,109.84,26.15,132.77,0.31
18,7.52,45.52,-12.58,1.67,3.02,-0.01,105.83,30.61,132.7,0.18
19,7.38,43.39,-12.58,1.67,3.02,-0.01,105.83,30.61,132.7,0.18
20,7.38,43.39,-17.9,-1.65,1.55,1.51,105.83,30.61,132.7,0.18
21,7.38,43.39,-17.9,-1.65,1.55,1.51,114.38,23.18,132.83,0.33
22,10.69,34.98,-28.38,2.23,1.55,1.51,114.38,23.18,132.83,0.33
23,10.69,34.98,-28.38,2.23,1.41,2.7,129.92,23.18,132.83,0.33
24,12.42,34.98,-28.38,2.23,1.41,2.7,129.92,19.83,133.24,-0.95

0,9.49,24.9,-27.11,-54.3,4.87,-3.12,135.52,18.96,139.22,0.32
1,8.72,34.71,-19.47,-54.3,4.87,-3.12,135.52,18.96,139.22,0.32
2,8.72,34.71,-19.47,-10.49,4.89,-6.67,135.52,18.96,139.22,0.32
3,8.72,34.71,-19.47,-10.49,4.89,-6.67,120.23,25.44,138.7,0.09
4,9.3,41.57,-12.53,-10.49,4.89,-6.67,120.23,25.44,138.7,0.09
5,9.3,41.57,-12.53,-5.95,-1.6,-2.04,105.18,25.44,138.7,0.09
6,9.3,41.57,-12.53,-5.95,-1.6,-2.04,105.18,35.96,138.23,-0.61
7,10.54,45.74,-6.76,-3.76,-1.6,-2.04,105.18,35.96,138.23,-0.61
8,10.54,45.74,-6.76,-3.76,-0.78,0.58,99.94,47.66,138.23,-0.61
9,9.22,45.74,-6.76,-3.76,-0.78,0.58,99.94,47.66,138.36,-1.15
10,9.22,46.36,-8.72,-1.46,-2.04,0.58,99.94,47.66,138.36,-1.15
11,9.22,46.36,-8.72,-1.46,-2.04,2.14,97.81,53.34,138.63,0.05
12,9.22,46.36,-8.72,-1.46,-2.04,2.14,97.81,53.34,138.63,0.05
13,7.81,48.0,-6.85,-3.75,-2.04,2.14,97.81,53.34,138.63,0.05
14,7.81,48.0,-6.85,-3.75,-1.7,2.83,98.91,49.25,138.63,0.05
15,6.63,46.59,-6.85,-3.75,-1.7,2.83,98.91,49.25,138.87,0.41
16,6.63,46.59,-7.03,-2.35,0.67,2.83,98.91,49.25,138.87,0.41
17,6.63,46.59,-7.03,-2.35,0.67,1.04,100.54,41.69,139.17,0.41
18,9.77,43.88,-7.03,-2.35,0.67,1.04,100.54,41.69,139.17,1.6
19,9.77,43.88,-11.86,-2.53,-0.34,0.54,100.54,41.69,139.17,1.6
20,9.77,43.88,-11.86,-2.53,-0.34,0.54,104.79,38.35,139.18,1.6
21,5.79,46.02,-11.86,-2.53,-0.34,0.54,104.79,38.35,139.18,0.19
22,5.79,46.02,-9.44,0.64,1.98,0.54,104.79,38.35,139.18,0.19
23,5.79,46.02,-9.44,0.64,1.98,1.21,101.41,36.48,139.44,0.01
24,10.15,40.37,-17.76,0.64,1.98,1.21,101.41,36.48,139.44,0.01

0,5.62,42.48,-21.14,-0.07,1.89,0.35,113.98,24.22,144.43,-1.05
1,5.62,42.48,-21.14,-0.07,1.89,0.68,115.21,23.42,144.65,-1.05
2,6.17,42.48,-21.14,-0.07,1.89,0.68,115.21,23.42,144.65,0.54
3,6.17,43.21,-15.61,1.55,0.93,0.68,115.21,23.42,144.65,0.54
4,6.17,43.21,-15.61,1.55,0.93,1.68,110.01,21.15,144.87,0.54
5,6.95,45.47,-15.61,1.55,0.93,1.68,110.01,21.15,144.87,0.33
6,6.95,45.47,-13.83,0.78,0.56,1.03,110.01,21.15,144.87,0.33
7,6.95,45.47,-13.83,0.78,0.56,1.03,106.99,22.33,145.04,-0.79
8,7.12,44.9,-16.96,0.78,0.56,1.03,106.99,22.33,145.04,-0.79
9,7.12,44.9,-16.96,-0.34,1.63,-0.11,109.87,22.33,145.04,-0.79
10,7.12,44.9,-16.96,-0.34,1.63,-0.11,109.87,23.86,145.08,0.55
11,6.48,45.18,-16.27,-1.12,1.63,-0.11,109.87,23.86,145.08,0.55
12,6.48,45.18,-16.27,-1.12,2.2,0.27,109.39,22.65,145.08,0.55
13,7.6,45.18,-16.27,-1.12,2.2,0.27,109.39,22.65,145.17,0.23
14,7.6,45.14,-14.35,-0.5,1.09,0.27,109.39,22.65,145.17,0.23
15,7.6,45.14,-14.35,-0.5,1.09,1.51,109.83,21.46,145.17,0.23
16,6.77,44.57,-14.35,-0.5,1.09,1.51,109.83,21.46,145.37,0.01
17,6.77,44.57,-16.39,-0.99,1.46,0.39,109.83,21.46,145.37,0.01
18,6.77,44.57,-16.39,-0.99,1.46,0.39,110.48,22.7,145.46,0.07
19,6.78,41.29,-21.5,-0.99,1.46,0.39,110.48,22.7,145.46,0.07
20,6.78,41.29,-21.5,-1.4,0.97,1.37,117.66,22.7,145.46,0.07
21,6.78,41.29,-21.5,-1.4,0.97,1.37,117.66,17.78,145.64,-0.06
22,8.14,37.77,-28.48,5.7,0.97,1.37,117.66,17.78,145.64,-0.06
23,8.14,37.77,-28.48,5.7,1.36,1.28,126.79,14.57,145.64,-0.06
24,8.58,37.77,-28.48,5.7,1.36,1.28,126.79,14.57,145.81,0.32

0,9.18,43.11,-14.9,0.06,-0.47,-0.29,109.66,18.94,143.09,0.25
1,9.18,43.11,-14.9,0.06,-0.47,-0.29,109.66,29.63,143.02,-0.14
2,7.92,44.29,-17.94,-2.11,-0.47,-0.29,109.66,29.63,143.02,-0.14
3,7.92,44.29,-17.94,-2.11,1.31,1.3,110.86,25.53,143.02,-0.14
4,8.09,44.29,-17.94,-2.11,1.31,1.3,110.86,25.53,143.17,1.05
5,8.09,46.17,-15.44,0.03,3.26,1.3,110.86,25.53,143.17,1.05
6,8.09,46.17,-15.44,0.03,3.26,1.35,108.9,27.7,143.17,1.05
7,6.95,46.17,-15.44,0.03,3.26,1.35,108.9,27.7,143.36,0.84
8,6.95,46.59,-15.77,1.06,1.54,1.35,108.9,27.7,143.36,0.84
9,6.95,46.59,-15.77,1.06,1.54,0.78,108.95,23.58,143.51,0.84
10,7.54,44.56,-15.77,1.06,1.54,0.78,108.95,23.58,143.51,-0.42
11,7.54,44.56,-15.77,-0.78,1.81,0.02,108.95,23.58,143.51,-0.42
12,7.54,44.56,-15.77,-0.78,1.81,0.02,109.41,26.51,143.49,-0.42
13,10.21,43.18,-16.42,-0.78,1.81,0.02,109.41,26.51,143.49,0.27
14,10.21,43.18,-16.42,1.19,1.29,0.61,111.4,31.06,143.49,0.27
15,10.21,43.18,-16.42,1.19,1.29,0.61,111.4,31.06,143.56,0.01
16,9.12,44.73,-17.32,0.29,1.29,0.61,111.4,31.06,143.56,0.01
17,9.12,44.73,-17.32,0.29,0.94,1.85,110.78,25.12,143.56,0.01
18,9.38,44.73,-17.32,0.29,0.94,1.85,110.78,25.12,143.84,0.31
19,9.38,41.47,-18.86,-0.74,0.94,1.85,110.78,25.12,143.84,0.31
20,9.38,41.47,-18.86,-0.74,2.62,0.31,116.21,24.57,143.84,0.31
21,7.26,41.47,-18.86,-0.74,2.62,0.31,116.21,24.57,143.92,-0.55
22,7.26,35.71,-29.42,7.46,2.78,0.31,116.21,24.57,143.92,-0.55
23,7.26,35.71,-29.42,7.46,2.78,0.12,131.21,13.38,143.93,-0.55
24,5.71,21.46,-29.42,7.46,2.78,0.12,131.21,13.38,143.93,-1.59

0,6.19,43.41,-9.74,-11.79,1.38,-2.47,105.74,-2.89,152.5,0.05
1,6.19,43.41,-9.74,-11.79,1.38,-2.47,101.82,34.24,152.25,0.03
2,1.38,43.41,-9.74,-11.79,1.38,-2.47,101.82,34.24,152.25,0.03
3,1.38,46.32,-13.93,-7.91,2.87,-2.47,101.82,34.24,152.25,0.03
4,1.38,46.32,-13.93,-7.91,2.87,-1.07,105.58,10.44,152.25,0.03
5,6.01,46.55,-13.93,-7.91,2.87,-1.07,105.58,10.44,152.12,0.87
6,6.01,46.55,-8.04,-8.15,-0.34,1.72,105.58,10.44,152.12,0.87
7,6.01,46.55,-8.04,-8.15,-0.34,1.72,99.95,27.72,151.89,0.29
8,2.94,46.74,-14.11,-7.52,-0.34,1.72,99.95,27.72,151.89,0.29
9,2.94,46.74,-14.11,-7.52,3.2,-2.32,105.57,23.23,151.89,0.29
10,5.43,46.74,-14.11,-7.52,3.2,-2.32,105.57,23.23,151.83,0.28
11,5.43,45.05,-11.79,-9.72,-0.49,0.1,105.57,23.23,151.83,0.28
12,5.43,45.05,-11.79,-9.72,-0.49,0.1,106.87,23.31,151.73,0.28
13,6.9,45.05,-11.79,-9.72,-0.49,0.1,106.87,23.31,151.73,0.58
14,6.9,43.22,-14.9,-5.69,3.12,0.1,106.87,23.31,151.73,0.58
15,6.9,43.22,-14.9,-5.69,3.12,-1.37,108.22,24.57,151.59,0.58
16,6.96,42.41,-18.41,-5.69,3.12,-1.37,108.22,24.57,151.59,-0.15
17,6.96,42.41,-18.41,-8.38,-0.09,-1.02,111.72,24.57,151.59,-0.15
18,6.96,42.41,-18.41,-8.38,-0.09,-1.02,111.72,21.47,151.47,-0.54
19,8.03,38.37,-23.83,-0.47,-0.09,-1.02,111.72,21.47,151.47,-0.54
20,8.03,38.37,-23.83,-0.47,-0.13,-0.44,121.98,21.47,151.47,-0.54
21,8.03,38.37,-23.83,-0.47,-0.13,-0.44,121.98,18.77,151.23,0.24
22,9.76,34.56,-24.42,8.43,-0.13,-0.44,121.98,18.77,151.23,0.24
23,9.76,34.56,-24.42,8.43,-0.19,0.2,132.8,19.97,151.23,0.24
24,10.78,34.56,-24.42,8.43,-0.19,0.2,132.8,19.97,151.26,-1.28

0,9.23,34.19,-27.16,-26.38,1.16,-9.62,153.35,10.93,162.69,0.12
1,9.23,34.19,-27.16,-26.38,1.16,-6.36,131.65,17.74,161.73,0.12
2,8.93,36.99,-27.16,-26.38,1.16,-6.36,131.65,17.74,161.73,1.07
3,8.93,36.99,-24.02,-9.69,1.38,-1.13,131.65,17.74,161.73,1.07
4,8.93,36.99,-24.02,-9.69,1.38,-1.13,121.31,18.25,161.36,-0.99
5,5.91,41.16,-19.63,-9.69,1.38,-1.13,121.31,18.25,161.36,-0.99
6,5.91,41.16,-19.63,-3.18,1.35,-0.77,111.81,18.25,161.36,-0.99
7,5.91,41.16,-19.63,-3.18,1.35,-0.77,111.81,22.02,161.37,-0.93
8,7.37,44.71,-19.99,-4.21,1.35,-0.77,111.81,22.02,161.37,-0.93
9,7.37,44.71,-19.99,-4.21,1.81,0.52,114.12,22.02,161.37,-0.93
10,7.37,44.71,-19.99,-4.21,1.81,0.52,114.12,19.4,161.38,2.0
11,5.88,44.85,-15.46,0.24,1.81,0.52,114.12,19.4,161.38,2.0
12,5.88,44.85,-15.46,0.24,0.42,0.86,109.86,24.74,161.38,2.0
13,9.35,44.85,-15.46,0.24,0.42,0.86,109.86,24.74,161.5,-0.09
14,9.35,42.53,-19.5,0.24,0.42,0.86,109.86,24.74,161.5,-0.09
15,9.35,42.53,-19.5,-2.69,-1.91,3.74,112.81,24.74,161.5,-0.09
16,9.35,42.53,-19.5,-2.69,-1.91,3.74,112.81,24.73,161.76,-1.35
17,5.12,45.25,-15.81,3.16,-1.91,3.74,112.81,24.73,161.76,-1.35
18,5.12,45.25,-15.81,3.16,2.92,1.18,109.94,17.4,161.76,-1.35
19,6.47,44.76,-17.73,3.16,2.92,1.18,109.94,17.4,162.17,0.14
20,6.47,44.76,-17.73,1.46,1.13,0.28,111.82,17.4,162.17,0.14
21,6.47,44.76,-17.73,1.46,1.13,0.28,111.82,21.27,162.21,0.21
22,8.86,41.74,-19.5,1.46,1.13,0.28,111.82,21.27,162.21,0.21
23,8.86,41.74,-19.5,2.91,4.05,-0.49,116.69,21.27,162.21,0.21
24,8.86,41.74,-19.5,2.91,4.05,-0.49,116.69,22.09,162.15,-0.52

0,8.57,40.01,-17.81,-13.91,-3.61,4.28,113.84,14.13,163.96,2.2
1,8.57,40.01,-17.81,-13.91,-3.61,4.28,113.84,14.13,164.53,0.19
2,9.9,43.78,-13.88,-3.98,-3.61,4.28,113.84,14.13,164.53,0.19
3,9.9,43.78,-13.88,-3.98,-4.49,0.97,108.85,34.23,164.53,0.19
4,9.58,43.78,-13.88,-3.98,-4.49,0.97,108.85,34.23,164.63,0.33
5,9.58,44.2,-12.78,-3.98,-1.48,0.97,108.85,34.23,164.63,0.33
6,9.58,44.2,-12.78,-3.98,-1.48,0.2,107.4,32.96,164.71,0.33
7,9.44,43.98,-12.78,-3.98,-1.48,0.2,107.4,32.96,164.71,-0.41
8,9.44,43.98,-14.83,-2.7,-1.5,2.37,107.4,32.96,164.71,-0.41
9,9.44,43.98,-14.83,-2.7,-1.5,2.37,108.13,30.21,164.93,-0.72
10,7.12,46.69,-8.85,-2.7,-1.5,2.37,108.13,30.21,164.93,-0.72
11,7.12,46.69,-8.85,-0.35,1.41,1.75,102.23,30.21,164.93,-0.72
12,7.12,46.69,-8.85,-0.35,1.41,1.75,102.23,31.88,165.32,0.04
13,10.13,44.44,-13.29,-0.35,1.41,1.75,102.23,31.88,165.32,0.04
14,10.13,44.44,-13.29,-3.22,-0.36,0.75,102.23,31.88,165.32,0.04
15,10.13,44.44,-13.29,-3.22,-0.36,0.75,106.09,32.22,165.38,-1.71
16,8.95,44.28,-12.78,-0.38,-0.36,0.75,106.09,32.22,165.38,-1.71
17,8.95,44.28,-12.78,-0.38,2.31,-0.25,107.52,33.75,165.38,-1.71
18,9.17,44.28,-12.78,-0.38,2.31,-0.25,107.52,33.75,165.46,0.38
19,9.17,43.33,-13.89,1.37,1.68,-0.25,107.52,33.75,165.46,0.38
20,9.17,43.33,-13.89,1.37,1.68,1.44,108.36,30.77,165.58,0.38
21,7.75,46.12,-13.89,1.37,1.68,1.44,108.36,30.77,165.58,0.06
22,7.75,46.12,-12.12,0.17,0.12,1.44,108.36,30.77,165.58,0.06
23,7.75,46.12,-12.12,0.17,0.12,1.23,104.39,30.77,165.58,0.06
24,12.71,46.12,-12.12,0.17,0.12,1.23,104.39,35.09,165.86,0.31

0,6.36,46.41,-11.18,-1.18,0.94,1.8,103.83,27.85,162.77,-0.81
1,7.21,46.41,-11.18,-1.18,0.94,1.8,103.83,27.85,162.77,-0.72
2,7.21,45.71,-10.77,0.62,2.81,1.8,103.83,27.85,162.77,-0.72
3,7.21,45.71,-10.77,0.62,2.81,0.45,103.49,33.29,162.9,-0.72
4,7.72,45.86,-10.77,0.62,2.81,0.45,103.49,33.29,162.9,-0.14
5,7.72,45.86,-12.45,-1.44,0.29,1.32,103.49,33.29,162.9,-0.14
6,7.72,45.86,-12.45,-1.44,0.29,1.32,104.55,30.66,163.04,0.28
7,6.03,46.62,-12.45,-1.44,0.29,1.32,104.55,30.66,163.04,0.28
8,6.03,46.62,-9.74,-1.86,0.13,1.17,104.55,30.66,163.04,0.28
9,6.03,46.62,-9.74,-1.86,0.13,1.17,103.15,32.53,163.29,0.49
10,7.97,45.37,-13.09,-1.86,0.13,1.17,103.15,32.53,163.29,0.49
11,7.97,45.37,-13.09,-1.22,1.5,1.36,106.04,32.53,163.29,0.49
12,7.97,45.37,-13.09,-1.22,1.5,1.36,106.04,28.53,163.41,0.13
13,7.63,45.72,-11.49,-1.22,1.5,1.36,106.04,28.53,163.41,0.13
14,7.63,45.72,-11.49,-1.34,0.41,1.03,104.26,28.53,163.41,0.13
15,7.63,45.72,-11.49,-1.34,0.41,1.03,104.26,30.39,163.61,0.31
16,7.03,45.25,-14.55,-0.81,0.41,1.03,104.26,30.39,163.61,0.31
17,7.03,45.25,-14.55,-0.81,1.45,1.11,106.24,30.39,163.61,0.31
18,7.75,45.25,-14.55,-0.81,1.45,1.11,106.24,26.42,163.79,0.2
19,7.75,44.06,-14.85,-1.3,1.91,1.11,106.24,26.42,163.79,0.2
20,7.75,44.06,-14.85,-1.3,1.91,0.71,108.2,28.0,163.89,0.2
21,7.85,42.58,-14.85,-1.3,1.91,0.71,108.2,28.0,163.89,-0.09
22,7.85,42.58,-18.5,3.75,0.38,1.25,108.2,28.0,163.89,-0.09
23,7.85,42.58,-18.5,3.75,0.38,1.25,113.95,23.02,164.11,-0.08
24,6.91,38.57,-18.5,3.75,0.38,1.25,113.95,23.02,164.11,-0.08

0,8.76,46.14,-1.73,2.24,3.87,0.13,99.23,48.95,164.72,0.26
1,8.76,46.14,-1.73,2.24,3.87,0.13,99.23,48.95,164.72,0.26
2,6.73,46.52,-3.69,0.02,3.87,0.13,99.23,48.95,164.72,0.26
3,6.73,46.52,-3.69,0.02,0.67,1.4,94.82,60.79,164.72,0.26
4,6.73,46.52,-3.69,0.02,0.67,1.4,94.82,60.79,165.13,0.33
5,6.75,47.24,-3.91,-0.9,2.78,1.4,94.82,60.79,165.13,0.33
6,6.75,47.24,-3.91,-0.9,2.78,0.3,93.45,67.13,165.13,0.33
7,8.61,47.24,-3.91,-0.9,2.78,0.3,93.45,67.13,165.14,-0.46
8,8.61,47.12,-4.97,-3.86,-0.21,0.3,93.45,67.13,165.14,-0.46
9,8.61,47.12,-4.97,-3.86,-0.21,-0.79,97.91,55.57,165.06,-0.46
10,6.86,47.58,-4.97,-3.86,-0.21,-0.79,97.91,55.57,165.06,0.03
11,6.86,47.58,-5.32,-0.05,1.85,1.17,97.91,55.57,165.06,0.03
12,6.86,47.58,-5.32,-0.05,1.85,1.17,96.74,55.05,165.2,-0.19
13,7.42,47.35,-5.32,-0.05,1.85,1.17,96.74,55.05,165.2,-0.19
14,7.42,47.35,-5.76,-0.14,1.3,1.28,96.74,55.05,165.2,-0.19
15,7.42,47.35,-5.76,-0.14,1.3,1.28,95.98,53.51,165.46,-0.98
16,8.26,46.6,-3.52,-0.14,1.3,1.28,95.98,53.51,165.46,-0.98
17,8.26,46.6,-3.52,0.47,1.38,1.3,94.65,53.51,165.46,-0.98
18,8.26,46.6,-3.52,0.47,1.38,1.3,94.65,64.69,165.59,0.2
19,8.2,46.54,-6.85,-1.25,1.38,1.3,94.65,64.69,165.59,0.2
20,8.2,46.54,-6.85,-1.25,1.51,0.82,97.78,53.16,165.59,0.2
21,7.6,46.54,-6.85,-1.25,1.51,0.82,97.78,53.16,165.81,0.26
22,7.6,45.68,-7.44,0.79,3.16,0.82,97.78,53.16,165.81,0.26
23,7.6,45.68,-7.44,0.79,3.16,0.87,101.26,42.9,165.95,0.26
24,9.24,41.17,-7.44,0.79,3.16,0.87,101.26,42.9,165.95,0.16

0,7.0,45.79,-6.35,-9.7,-1.15,2.53,101.6,45.62,150.57,-0.03
1,7.0,45.79,-6.35,-9.7,-1.15,-1.68,98.98,45.98,150.34,-0.03
2,9.31,47.96,-6.35,-9.7,-1.15,-1.68,98.98,45.98,150.34,0.95
3,9.31,47.96,-7.42,-0.74,2.09,-1.01,98.98,45.98,150.34,0.95
4,9.31,47.96,-7.42,-0.74,2.09,-1.01,97.39,57.47,150.1,-1.28
5,9.31,47.96,-7.42,-0.74,2.09,-1.01,97.39,57.47,150.1,-1.28
6,9.52,47.21,-7.89,-1.68,2.09,-1.01,97.39,57.47,150.1,-1.28
7,9.52,47.21,-7.89,-1.68,-0.96,0.86,99.44,37.99,150.1,-1.28
8,8.15,46.99,-7.89,-1.68,-0.96,0.86,99.44,37.99,150.2,0.28
9,8.15,46.99,-4.3,-0.75,0.26,4.37,99.44,37.99,150.2,0.28
10,8.15,46.99,-4.3,-0.75,0.26,4.37,95.13,51.88,150.6,0.69
11,6.77,48.05,-5.65,-0.75,0.26,4.37,95.13,51.88,150.6,0.69
12,6.77,48.05,-5.65,-2.05,1.39,0.96,95.13,51.88,150.6,0.69
13,6.77,48.05,-5.65,-2.05,1.39,0.96,94.66,58.98,150.79,-1.01
14,8.6,46.03,-8.32,-3.69,1.39,0.96,94.66,58.98,150.79,-1.01
15,8.6,46.03,-8.32,-3.69,-1.35,2.16,99.62,41.7,150.79,-1.01
16,8.6,46.03,-8.32,-3.69,-1.35,2.16,99.62,41.7,151.06,0.05
17,7.87,46.84,-5.62,-0.7,-1.35,2.16,99.62,41.7,151.06,0.05
18,7.87,46.84,-5.62,-0.7,-1.11,1.34,97.28,55.03,151.06,0.05
19,7.64,46.84,-5.62,-0.7,-1.11,1.34,97.28,55.03,151.29,0.11
20,7.64,46.89,-4.71,-0.94,1.17,1.34,97.28,55.03,151.29,0.11
21,7.64,46.89,-4.71,-0.94,1.17,0.04,95.95,59.76,151.33,0.11
22,7.72,46.89,-4.71,-0.94,1.17,0.04,95.95,59.76,151.33,0.98
23,7.72,46.21,-6.42,-3.07,2.26,0.04,95.95,59.76,151.33,0.98
24,7.72,46.21,-6.42,-3.07,2.26,-0.83,98.31,49.8,151.2,0.98

0,4.71,48.57,-6.04,0.04,1.93,-0.2,96.81,61.09,144.58,0.06
1,4.71,48.57,-6.04,0.04,1.93,-0.2,96.81,50.57,144.75,0.16
2,8.06,46.39,-6.7,-1.02,1.93,-0.2,96.81,50.57,144.75,0.16
3,8.06,46.39,-6.7,-1.02,0.61,1.14,96.81,50.57,144.75,0.16
4,8.06,46.39,-6.7,-1.02,0.61,1.14,98.37,50.56,144.78,0.12
5,8.71,46.58,-8.22,-0.6,0.61,1.14,98.37,50.56,144.78,0.12
6,8.71,46.58,-8.22,-0.6,-0.28,1.83,99.04,50.99,144.78,0.12
7,8.42,46.58,-8.22,-0.6,-0.28,1.83,99.04,50.99,145.05,0.22
8,8.42,46.6,-6.16,-0.26,0.91,1.83,99.04,50.99,145.05,0.22
9,8.42,46.6,-6.16,-0.26,0.91,1.83,96.44,55.49,145.32,0.05
10,8.82,46.5,-6.16,-0.26,0.91,1.83,96.44,55.49,145.32,0.05
11,8.82,46.5,-7.22,-1.03,1.39,1.83,96.44,55.49,145.32,0.05
12,8.82,46.5,-7.22,-1.03,1.39,0.76,98.4,52.49,145.44,0.05
13,6.38,46.5,-7.22,-1.03,1.39,0.76,98.4,52.49,145.44,0.51
14,6.38,46.76,-6.77,-0.7,1.39,0.76,98.4,52.49,145.44,0.51
15,6.38,46.76,-6.77,-0.7,0.76,1.93,98.42,47.87,145.66,0.51
16,7.75,46.76,-6.77,-0.7,0.76,1.93,98.42,47.87,145.66,1.33
17,7.75,47.45,-6.77,-0.7,0.76,1.93,98.42,47.87,145.83,0.08
18,7.5,47.45,-6.77,-0.7,0.76,1.93,98.42,47.87,145.83,0.08
19,7.5,46.88,-5.62,-0.88,0.76,1.93,98.42,47.87,145.83,0.08
20,7.5,46.88,-5.62,-0.88,1.52,1.12,97.27,54.04,145.83,0.08
21,10.66,46.88,-5.62,-0.88,1.52,1.12,97.27,54.04,146.0,0.23
22,10.66,44.38,-10.08,-1.86,1.79,1.12,97.27,54.04,146.0,0.23
23,10.66,44.38,-10.08,-1.86,1.79,0.24,104.01,43.81,146.08,0.23
24,11.17,44.38,-10.08,-1.86,1.79,0.24,104.01,43.81,146.08,0.0

0,8.47,47.07,-6.04,2.21,0.52,2.11,96.87,51.72,146.0,0.02
1,7.44,47.07,-6.04,2.21,0.52,2.11,96.87,51.72,146.37,-1.65
2,7.44,46.89,-9.17,-1.27,0.44,2.11,96.87,51.72,146.37,-1.65
3,7.44,46.89,-9.17,-1.27,0.44,0.56,99.4,43.57,146.37,-1.65
4,9.17,46.61,-9.17,-1.27,0.44,0.56,99.4,43.57,146.52,0.14
5,9.17,46.61,-7.28,-0.22,1.39,0.56,99.4,43.57,146.52,0.14
6,9.17,46.61,-7.28,-0.22,1.39,-1.54,100.34,48.83,146.31,0.14
7,10.25,46.56,-7.28,-0.22,1.39,-1.54,100.34,48.83,146.31,0.42
8,10.25,46.56,-6.83,0.88,0.77,1.04,100.34,48.83,146.31,0.42
9,10.25,46.56,-6.83,0.88,0.77,1.04,99.29,50.64,146.39,0.33
10,9.0,46.35,-7.73,0.88,0.77,1.04,99.29,50.64,146.39,0.33
11,9.0,46.35,-7.73,-1.03,1.54,1.06,99.82,50.64,146.39,0.33
12,9.0,46.35,-7.73,-1.03,1.54,1.06,99.82,46.95,146.58,-0.14
13,7.98,46.13,-8.09,-0.32,1.54,1.06,99.82,46.95,146.58,-0.14
14,7.98,46.13,-8.09,-0.32,1.24,1.12,99.66,46.48,146.58,-0.14
15,7.98,46.13,-8.09,-0.32,1.24,1.12,99.66,46.48,146.74,0.23
16,10.16,45.59,-8.26,0.44,2.14,1.12,99.66,46.48,146.74,0.23
17,10.16,45.59,-8.26,0.44,2.14,1.47,100.34,47.77,146.89,0.24
18,8.91,45.59,-8.26,0.44,2.14,1.47,100.34,47.77,146.89,0.24
19,8.91,45.53,-10.28,0.53,1.66,2.47,100.34,47.77,146.89,0.24
20,8.91,45.53,-10.28,0.53,1.66,2.47,103.69,39.34,147.24,0.25
21,10.42,39.69,-19.12,0.53,1.66,2.47,103.69,39.34,147.24,0.25
22,10.42,39.69,-19.12,4.38,4.05,1.14,103.69,39.34,147.24,0.25
23,10.42,39.69,-19.12,4.38,4.05,1.14,118.9,27.56,147.51,0.45
24,13.23,19.22,-19.12,4.38,4.05,1.14,118.9,27.56,147.51,0.45

0,11.16,44.76,-10.41,-0.43,-5.74,5.09,100.2,35.33,135.63,2.72
1,11.16,44.76,-10.41,-0.43,1.81,-0.96,101.97,51.73,135.63,2.72
2,10.55,45.4,-10.41,-0.43,1.81,-0.96,101.97,51.73,135.5,0.01
3,10.55,45.4,-7.37,0.75,3.12,0.51,101.97,51.73,135.5,0.01
4,10.55,45.4,-7.37,0.75,3.12,0.51,100.46,52.05,135.6,-0.96
5,8.71,46.23,-10.31,-2.13,3.12,0.51,100.46,52.05,135.6,-0.96
6,8.71,46.23,-10.31,-2.13,1.5,0.75,100.39,52.05,135.6,-0.96
7,8.71,46.23,-10.31,-2.13,1.5,0.75,100.39,49.76,135.72,1.05
8,8.91,45.74,-9.96,-0.23,1.5,0.75,100.39,49.76,135.72,1.05
9,8.91,45.74,-9.96,-0.23,-0.23,0.48,101.95,43.21,135.72,1.05
10,9.96,45.74,-9.96,-0.23,-0.23,0.48,101.95,43.21,135.76,0.3
11,9.96,45.86,-8.95,1.72,0.61,0.48,101.95,43.21,135.76,0.3
12,9.96,45.86,-8.95,1.72,0.61,1.21,101.39,48.67,135.76,0.3
13,11.39,45.86,-8.95,1.72,0.61,1.21,101.39,48.67,135.83,0.21
14,11.39,45.24,-7.54,0.47,1.72,1.21,101.39,48.67,135.83,0.21
15,11.39,45.24,-7.54,0.47,1.72,0.6,100.31,52.91,135.94,0.21
16,11.43,43.09,-7.54,0.47,1.72,0.6,100.31,52.91,135.94,-0.67
17,11.43,43.09,-12.84,1.79,1.43,1.04,100.31,52.91,135.94,-0.67
18,11.43,43.09,-12.84,1.79,1.43,1.04,107.76,39.87,136.14,-0.67
19,10.76,41.67,-12.84,1.79,1.43,1.04,107.76,39.87,136.14,0.42
20,10.76,41.67,-15.29,9.01,3.97,2.01,107.76,39.87,136.14,0.42
21,10.76,41.67,-15.29,9.01,3.97,2.01,112.87,31.81,136.43,0.82
22,11.45,36.22,-31.95,9.01,3.97,2.01,112.87,31.81,136.43,0.82
23,11.45,36.22,-31.95,21.33,6.04,1.16,135.9,31.81,136.43,0.82
24,11.45,36.22,-31.95,21.33,6.04,1.16,135.9,19.36,136.59,-1.9

0,10.97,44.38,-12.59,1.09,2.25,2.16,109.63,34.12,123.37,1.09
1,10.97,44.38,-12.59,1.09,2.25,0.6,106.35,39.98,123.54,1.09
2,9.83,44.74,-13.33,1.09,2.25,0.6,106.35,39.98,123.54,0.28
3,9.83,44.74,-13.33,0.17,1.07,1.98,106.42,39.98,123.54,0.28
4,9.83,44.74,-13.33,0.17,1.07,1.98,106.42,33.37,123.84,0.12
5,11.72,44.3,-13.33,0.17,1.07,1.98,106.42,33.37,123.84,0.12
6,11.72,44.3,-13.33,1.12,2.7,1.16,106.42,33.37,123.84,0.12
7,11.72,44.3,-13.33,1.12,2.7,1.16,107.65,32.4,124.07,-0.54
8,10.1,45.38,-12.77,1.12,2.7,1.16,107.65,32.4,124.07,-0.54
9,10.1,45.38,-12.77,-0.67,-0.59,0.65,105.91,38.89,124.07,-0.54
10,10.1,45.38,-12.77,-0.67,-0.59,0.65,105.91,38.89,124.26,0.29
11,10.72,44.43,-14.32,1.09,-0.6,0.65,105.91,38.89,124.26,0.29
12,10.72,44.43,-14.32,1.09,-0.6,2.72,108.2,34.89,124.57,0.29
13,9.18,44.43,-14.32,1.09,-0.6,2.72,108.2,34.89,124.57,0.18
14,9.18,45.92,-11.72,1.4,-0.6,2.72,108.2,34.89,124.57,0.18
15,9.18,45.92,-11.72,1.4,1.53,1.37,104.6,35.56,124.85,0.18
16,9.54,45.92,-11.72,1.4,1.53,1.37,104.6,35.56,124.85,-0.07
17,9.54,46.14,-12.6,0.35,1.62,1.37,104.6,35.56,124.85,-0.07
18,9.54,46.14,-12.6,0.35,1.62,0.27,105.07,37.99,124.85,-0.07
19,11.82,44.65,-12.6,0.35,1.62,0.27,105.07,37.99,124.95,-0.01
20,11.82,44.65,-14.36,-2.93,0.17,0.94,105.07,37.99,124.95,-0.01
21,11.82,44.65,-14.36,-2.93,0.17,0.94,107.77,36.75,125.09,-0.01
22,10.53,43.22,-14.36,-2.93,0.17,0.94,107.77,36.75,125.09,-0.87
23,10.53,43.22,-16.12,-0.23,1.34,1.21,107.77,36.75,125.09,-0.87
24,10.53,43.22,-16.12,-0.23,1.34,1.21,110.26,36.54,125.33,0.09

0,11.47,45.57,-15.64,-8.18,-5.67,3.87,108.4,31.88,129.12,0.03
1,10.76,44.56,-15.64,-8.18,-5.67,3.87,108.4,31.88,129.12,0.24
2,10.76,44.56,-6.07,3.04,2.33,1.17,108.4,31.88,129.12,0.24
3,10.76,44.56,-6.07,3.04,2.33,1.17,97.95,60.88,129.41,0.24
4,11.14,46.97,-6.07,3.04,2.33,1.17,97.95,60.88,129.41,0.6
5,11.14,46.97,-13.33,-4.4,-2.04,1.66,97.95,60.88,129.41,0.6
6,11.14,46.97,-13.33,-4.4,-2.04,1.66,103.48,45.41,129.76,-0.87
7,11.43,45.03,-10.03,-4.4,-2.04,1.66,103.48,45.41,129.76,-0.87
8,11.43,45.03,-10.03,-1.39,0.76,0.06,102.48,45.41,129.76,-0.87
9,11.43,45.03,-10.03,-1.39,0.76,0.06,102.48,51.22,129.83,0.27
10,13.5,43.89,-8.01,-1.65,0.76,0.06,102.48,51.22,129.83,0.27
11,13.5,43.89,-8.01,-1.65,1.7,2.36,100.2,57.15,129.83,0.27
12,13.5,43.89,-8.01,-1.65,1.7,2.36,100.2,57.15,130.04,-0.0
13,12.88,44.65,-13.49,-1.65,1.7,2.36,100.2,57.15,130.04,-0.0
14,12.88,44.65,-13.49,-6.24,1.45,2.41,107.56,57.15,130.04,-0.0
15,10.51,44.65,-13.49,-6.24,1.45,2.41,107.56,36.68,130.49,-1.6
16,10.51,46.04,-9.46,0.24,3.01,2.41,107.56,36.68,130.49,-1.6
17,10.51,46.04,-9.46,0.24,3.01,1.01,102.18,42.99,130.49,-1.6
18,10.11,46.04,-9.46,0.24,3.01,1.01,102.18,42.99,130.78,0.07
19,10.11,45.37,-10.89,-0.01,4.03,1.01,102.18,42.99,130.78,0.07
20,10.11,45.37,-10.89,-0.01,4.03,-1.93,103.66,47.94,130.68,0.07
21,11.88,43.25,-10.89,-0.01,4.03,-1.93,103.66,47.94,130.68,0.28
22,11.88,43.25,-13.73,-1.1,5.08,-1.14,103.66,47.94,130.68,0.28
23,11.88,43.25,-13.73,-1.1,5.08,-1.14,108.92,40.81,130.5,0.28
24,11.88,43.25,-13.73,-1.1,5.08,-1.14,108.92,40.81,130.5,0.54

0,7.74,47.12,-10.91,-2.86,-3.33,1.34,106.99,32.57,131.65,-4.07
1,7.74,47.12,-10.91,-2.86,-3.33,2.2,103.11,38.61,131.98,-4.07
2,7.76,45.67,-9.67,-2.86,-3.33,2.2,103.11,38.61,131.98,0.6
3,7.76,45.67,-9.67,-4.68,0.85,-1.34,101.19,38.61,131.98,0.6
4,7.76,45.67,-9.67,-4.68,0.85,-1.34,101.19,52.86,132.08,0.33
5,9.21,45.06,-11.05,1.24,0.85,-1.34,101.19,52.86,132.08,0.33
6,9.21,45.06,-11.05,1.24,1.34,0.6,104.92,41.64,132.11,0.33
7,12.54,45.06,-11.05,1.24,1.34,0.6,104.92,41.64,132.11,0.27
8,12.54,44.15,-12.32,-2.01,0.23,0.6,104.92,41.64,132.11,0.27
9,12.54,44.15,-12.32,-2.01,0.23,-0.98,107.4,43.25,132.11,0.27
10,11.98,44.15,-12.32,-2.01,0.23,-0.98,107.4,43.25,131.99,0.29
11,11.98,44.74,-11.75,0.56,0.26,-0.98,107.4,43.25,131.99,0.29
12,11.98,44.74,-11.75,0.56,0.26,-0.49,103.37,46.92,131.99,0.29
13,13.12,44.74,-11.75,0.56,0.26,-0.49,103.37,46.92,131.92,-0.49
14,13.12,44.2,-14.67,-2.6,1.57,-0.49,103.37,46.92,131.92,-0.49
15,13.12,44.2,-14.67,-2.6,1.57,0.85,107.42,42.62,131.94,-0.49
16,10.4,44.88,-14.67,-2.6,1.57,0.85,107.42,42.62,131.94,-0.22
17,10.4,44.88,-13.03,2.82,2.35,1.28,107.42,42.62,131.94,-0.22
18,10.4,44.88,-13.03,2.82,2.35,1.28,105.74,44.38,132.13,0.9
19,10.61,45.74,-11.41,2.82,2.35,1.28,105.74,44.38,132.13,0.9
20,10.61,45.74,-11.41,0.9,1.12,2.04,103.77,44.38,132.13,0.9
21,10.61,45.74,-11.41,0.9,1.12,2.04,103.77,44.44,132.4,0.31
22,11.4,43.58,-19.48,1.0,1.12,2.04,103.77,44.44,132.4,0.31
23,11.4,43.58,-19.48,1.0,2.65,1.28,116.29,28.35,132.4,0.31
24,11.4,43.58,-19.48,1.0,2.65,1.28,116.29,28.35,132.64,-0.01

0,9.55,45.82,-9.99,-3.5,-1.28,-0.29,102.48,45.38,137.23,0.99
1,9.55,45.82,-9.99,-3.5,-1.28,1.75,101.68,40.84,137.33,0.99
2,10.86,44.17,-12.08,-3.5,-1.28,1.75,101.68,40.84,137.33,-1.42
3,10.86,44.17,-12.08,-3.59,1.86,-0.22,101.68,40.84,137.33,-1.42
4,10.86,44.17,-12.08,-3.59,1.86,-0.22,104.37,46.19,137.42,0.2
5,9.48,44.17,-12.08,-3.59,1.86,-0.22,104.37,46.19,137.42,0.2
6,9.48,46.23,-9.82,0.92,-0.22,-0.22,104.37,46.19,137.42,0.2
7,9.48,46.23,-9.82,0.92,-0.22,1.12,100.93,42.77,137.59,0.2
8,10.1,46.88,-9.64,0.92,-0.22,1.12,100.93,42.77,137.59,0.01
9,10.1,46.88,-9.64,-1.5,4.16,0.11,99.81,42.77,137.59,0.01
10,10.1,46.88,-9.64,-1.5,4.16,0.11,99.81,46.7,137.68,-1.6
11,8.43,47.34,-5.73,-1.55,4.16,0.11,99.81,46.7,137.68,-1.6
12,8.43,47.34,-5.73,-1.55,-0.51,-0.53,98.48,48.39,137.68,-1.6
13,10.59,45.66,-5.73,-1.55,-0.51,-0.53,98.48,48.39,137.64,-0.56
14,10.59,45.66,-10.38,-2.82,2.37,-0.87,98.48,48.39,137.64,-0.56
15,10.59,45.66,-10.38,-2.82,2.37,-0.87,102.84,46.24,137.5,-0.56
16,10.21,44.66,-11.97,-2.82,2.37,-0.87,102.84,46.24,137.5,0.1
17,10.21,44.66,-11.97,-1.66,0.36,0.66,102.84,46.24,137.5,0.1
18,10.21,44.66,-11.97,-1.66,0.36,0.66,105.22,41.86,137.54,0.29
19,12.08,40.68,-17.32,-1.66,0.36,0.66,105.22,41.86,137.54,0.29
20,12.08,40.68,-17.32,-1.15,1.18,1.68,121.06,25.78,137.54,0.29
21,12.08,40.68,-17.32,-1.15,1.18,1.68,121.06,25.78,137.84,-0.86
22,10.84,31.15,-47.72,27.41,1.18,1.68,121.06,25.78,137.84,-0.86
23,10.84,31.15,-47.72,27.41,16.15,3.83,147.56,11.57,137.84,-0.86
24,10.84,31.15,-47.72,27.41,16.15,3.83,147.56,11.57,138.31,0.33

0,10.18,41.58,-13.98,-9.77,-0.33,-1.13,120.11,26.72,131.03,0.3
1,10.18,41.58,-13.98,-9.77,-0.33,-1.13,110.3,32.35,130.91,-0.16
2,12.36,45.65,-13.51,-9.77,-0.33,-1.13,110.3,32.35,130.91,-0.16
3,12.36,45.65,-13.51,-5.44,-3.36,0.97,106.7,32.35,130.91,-0.16
4,12.36,45.65,-13.51,-5.44,-3.36,0.97,106.7,34.84,130.98,-3.3
5,8.07,47.99,-8.8,-2.44,-3.36,0.97,106.7,34.84,130.98,-3.3
6,8.07,47.99,-8.8,-2.44,1.81,0.34,100.75,52.62,130.98,-3.3
7,9.19,47.99,-8.8,-2.44,1.81,0.34,100.75,52.62,131.22,-0.66
8,9.19,45.2,-10.22,-4.33,-2.67,0.34,100.75,52.62,131.22,-0.66
9,9.19,45.2,-10.22,-4.33,-2.67,3.49,101.87,37.14,131.57,-0.66
10,9.13,45.2,-10.22,-4.33,-2.67,3.49,101.87,37.14,131.57,0.76
11,9.13,45.21,-8.42,-2.58,4.38,3.49,101.87,37.14,131.57,0.76
12,9.13,45.21,-8.42,-2.58,4.38,1.76,102.22,44.82,131.87,0.76
13,10.97,44.77,-8.42,-2.58,4.38,1.76,102.22,44.82,131.87,0.72
14,10.97,44.77,-13.51,-3.26,4.53,0.34,102.22,44.82,131.87,0.72
15,10.97,44.77,-13.51,-3.26,4.53,0.34,107.18,35.03,131.95,0.11
16,12.58,41.68,-18.84,-3.26,4.53,0.34,107.18,35.03,131.95,0.11
17,12.58,41.68,-18.84,-1.78,7.1,0.32,113.47,35.27,131.95,0.11
18,12.58,41.68,-18.84,-1.78,7.1,0.32,113.47,35.27,131.89,0.31
19,15.6,37.86,-27.08,6.59,7.1,0.32,113.47,35.27,131.89,0.31
20,15.6,37.86,-27.08,6.59,12.45,0.86,113.47,35.27,131.89,0.31
21,15.6,37.86,-27.08,6.59,12.45,0.86,126.84,26.9,132.08,0.31
22,16.24,27.73,-27.08,6.59,12.45,0.86,126.84,26.9,132.08,0.21
23,16.24,27.73,-36.26,31.97,24.83,2.55,126.84,26.9,132.08,0.21
24,16.24,27.73,-36.26,31.97,24.83,2.55,146.87,23.14,132.51,-2.5

0,1.78,45.86,-16.12,-1.61,0.22,0.74,108.21,13.52,145.57,0.31
1,1.78,45.86,-16.12,-1.61,0.22,0.74,108.21,6.39,145.79,0.91
2,3.46,44.05,-18.88,-1.61,0.22,0.74,108.21,6.39,145.79,0.91
3,3.46,44.05,-18.88,-3.42,-1.72,1.25,108.21,6.39,145.79,0.91
4,3.46,44.05,-18.88,-3.42,-1.72,1.25,111.49,7.3,145.81,-0.98
5,4.37,44.89,-13.76,-3.42,-1.72,1.25,111.49,7.3,145.81,-0.98
6,4.37,44.89,-13.76,1.98,1.4,-0.27,108.02,7.3,145.81,-0.98
7,4.37,44.89,-13.76,1.98,1.4,-0.27,108.02,8.15,145.83,-0.56
8,5.22,46.18,-11.62,1.4,1.4,-0.27,108.02,8.15,145.83,-0.56
9,5.22,46.18,-11.62,1.4,-0.31,-0.41,104.7,19.34,145.83,-0.56
10,4.0,44.2,-11.62,1.4,-0.31,-0.41,104.7,19.34,145.72,0.11
11,4.0,44.2,-15.59,0.74,1.84,-0.41,104.7,19.34,145.72,0.11
12,4.0,44.2,-15.59,0.74,1.84,-0.93,109.41,18.64,145.68,0.11
13,2.96,44.52,-15.59,0.74,1.84,-0.93,109.41,18.64,145.68,0.67
14,2.96,44.52,-18.07,0.11,0.43,0.75,109.41,18.64,145.68,0.67
15,2.96,44.52,-18.07,0.11,0.43,0.75,110.97,11.45,145.72,0.67
16,4.06,44.06,-18.07,0.11,0.43,0.75,110.97,11.45,145.72,0.27
17,4.06,44.06,-14.22,4.15,1.68,0.75,110.97,11.45,145.72,0.27
18,4.06,44.06,-14.22,4.15,1.68,1.23,108.24,13.41,145.85,0.27
19,4.71,41.28,-21.07,5.86,1.68,1.23,108.24,13.41,145.85,0.0
20,4.71,41.28,-21.07,5.86,3.98,-0.16,120.52,13.41,145.85,0.0
21,4.71,41.28,-21.07,5.86,3.98,-0.16,120.52,13.99,145.84,0.16
22,7.71,22.08,-35.11,15.91,3.98,-0.16,120.52,13.99,145.84,0.16
23,7.71,22.08,-35.11,15.91,11.56,-0.5,152.36,13.99,145.84,0.16
24,5.16,22.08,-35.11,15.91,11.56,-0.5,152.36,12.43,145.75,-1.57

0,0.76,40.4,-23.91,-9.18,-0.76,3.76,132.17,16.01,134.59,1.04
1,0.76,40.4,-23.91,-9.18,-0.76,3.76,119.28,3.83,135.09,1.04
2,6.61,42.79,-23.91,-9.18,-0.76,3.76,119.28,3.83,135.09,0.72
3,6.61,42.79,-14.68,-1.31,0.43,-0.1,119.28,3.83,135.09,0.72
4,6.61,42.79,-14.68,-1.31,0.43,-0.1,109.56,15.36,135.11,0.07
5,3.85,45.05,-13.24,0.41,0.43,-0.1,109.56,15.36,135.11,0.07
6,3.85,45.05,-13.24,0.41,3.72,-0.11,107.36,12.82,135.11,0.07
7,3.85,45.05,-13.24,0.41,3.72,-0.11,107.36,12.82,135.11,1.09
8,6.52,44.94,-15.13,0.45,3.72,-0.11,107.36,12.82,135.11,1.09
9,6.52,44.94,-15.13,0.45,0.83,0.75,107.83,13.88,135.03,1.09
10,4.56,44.94,-15.13,0.45,0.83,0.75,107.83,13.88,135.03,-1.01
11,4.56,44.84,-15.26,-1.76,0.5,0.75,107.83,13.88,135.03,-1.01
12,4.56,44.84,-15.26,-1.76,0.5,0.83,108.39,13.88,135.03,-1.01
13,4.56,44.84,-15.26,-1.76,0.5,0.83,108.39,18.31,135.13,0.25
14,7.18,43.41,-16.98,-1.76,0.5,0.83,108.39,18.31,135.13,0.25
15,7.18,43.41,-16.98,-0.64,1.63,0.92,110.84,18.31,135.13,0.25
16,3.14,43.41,-16.98,-0.64,1.63,0.92,110.84,19.54,135.23,0.01
17,3.14,45.04,-12.24,2.5,1.12,0.92,110.84,19.54,135.23,0.01
18,3.14,45.04,-12.24,2.5,1.12,1.72,108.22,15.16,135.47,0.01
19,3.93,42.84,-20.74,2.5,1.12,1.72,108.22,15.16,135.47,0.97
20,3.93,42.84,-20.74,4.06,2.6,0.36,108.22,15.16,135.47,0.97
21,3.93,42.84,-20.74,4.06,2.6,0.36,116.58,10.91,135.52,-0.29
22,3.39,38.92,-30.67,4.06,2.6,0.36,116.58,10.91,135.52,-0.29
23,3.39,38.92,-30.67,15.49,8.55,-1.29,135.62,10.91,135.52,-0.29
24,3.39,38.92,-30.67,15.49,8.55,-1.29,135.62,4.45,135.32,-1.93

0,8.28,44.71,-16.7,0.79,0.46,0.49,109.66,24.68,121.88,1.6
1,6.71,44.48,-16.7,0.79,0.46,0.49,109.66,24.68,121.92,-1.05
2,6.71,44.48,-14.85,-1.25,1.2,0.55,109.66,24.68,121.92,-1.05
3,6.71,44.48,-14.85,-1.25,1.2,0.55,108.92,24.12,122.13,-1.05
4,6.53,44.77,-14.85,-1.25,1.2,0.55,108.92,24.12,122.13,0.16
5,6.53,44.77,-16.67,-0.63,1.12,0.51,110.92,24.12,122.13,0.16
6,6.53,44.77,-16.67,-0.63,1.12,0.51,110.92,21.81,122.18,0.23
7,7.63,43.5,-17.43,-1.54,1.12,0.51,110.92,21.81,122.18,0.23
8,7.63,43.5,-17.43,-1.54,1.29,-0.4,111.87,21.81,122.18,0.23
9,7.63,43.5,-17.43,-1.54,1.29,-0.4,111.87,24.92,122.16,0.09
10,6.07,43.54,-18.56,-1.17,1.29,-0.4,111.87,24.92,122.16,0.09
11,6.07,43.54,-18.56,-1.17,0.35,1.46,112.2,17.81,122.16,0.09
12,6.07,43.54,-18.56,-1.17,0.35,1.46,112.2,17.81,122.32,-0.15
13,8.75,43.15,-20.03,-1.4,0.35,1.46,112.2,17.81,122.32,-0.15
14,8.75,43.15,-20.03,-1.4,1.23,0.12,113.84,22.91,122.32,-0.15
15,8.75,43.15,-20.03,-1.4,1.23,0.12,113.84,22.91,122.32,0.26
16,7.85,42.07,-19.17,3.22,1.23,0.12,113.84,22.91,122.32,0.26
17,7.85,42.07,-19.17,3.22,1.59,0.57,114.98,20.36,122.4,0.26
18,7.67,40.32,-21.44,3.22,1.59,0.57,114.98,20.36,122.4,-0.21
19,7.67,40.32,-21.44,4.35,1.85,0.76,121.43,20.36,122.4,-0.21
20,7.67,40.32,-21.44,4.35,1.85,0.76,121.43,17.75,122.54,-0.66
21,6.24,27.68,-58.48,27.34,1.85,0.76,121.43,17.75,122.54,-0.66
22,6.24,27.68,-58.48,27.34,15.93,-2.08,163.36,8.36,122.54,-0.66
23,10.86,27.68,-58.48,27.34,15.93,-2.08,163.36,8.36,122.36,-2.04
24,10.86,-6.96,-65.27,87.73,7.43,-2.08,163.36,8.36,122.36,-2.04

0,9.66,44.02,-16.06,-1.69,6.67,-2.89,110.4,29.35,107.45,1.28
1,9.66,44.02,-16.06,-1.69,6.67,-2.89,110.4,34.95,106.99,0.12
2,8.58,44.94,-15.18,-1.69,6.67,-2.89,110.4,34.95,106.99,0.12
3,8.58,44.94,-15.18,1.04,2.62,2.7,109.73,34.95,106.99,0.12
4,8.58,44.94,-15.18,1.04,2.62,2.7,109.73,30.69,107.11,1.19
5,11.6,43.19,-15.18,1.04,2.62,2.7,109.73,30.69,107.11,1.19
6,11.6,43.19,-13.3,2.45,3.97,0.03,109.73,30.69,107.11,1.19
7,11.6,43.19,-13.3,2.45,3.97,0.03,108.51,37.29,107.15,1.19
8,7.79,45.66,-11.52,2.14,3.97,0.03,108.51,37.29,107.15,-0.41
9,7.79,45.66,-11.52,2.14,2.6,0.66,105.29,35.0,107.15,-0.41
10,11.15,45.66,-11.52,2.14,2.6,0.66,105.29,35.0,107.27,0.13
11,11.15,44.87,-13.54,-3.63,0.13,0.66,105.29,35.0,107.27,0.13
12,11.15,44.87,-13.54,-3.63,0.13,-0.63,107.28,38.37,107.13,0.13
13,9.55,44.99,-13.54,-3.63,0.13,-0.63,107.28,38.37,107.13,0.29
14,9.55,44.99,-14.91,-1.42,1.01,0.4,107.28,38.37,107.13,0.29
15,9.55,44.99,-14.91,-1.42,1.01,0.4,109.0,34.03,107.16,0.29
16,12.52,43.7,-14.86,-1.42,1.01,0.4,109.0,34.03,107.16,0.84
17,12.52,43.7,-14.86,0.18,1.34,-0.05,108.15,34.03,107.16,0.84
18,9.93,43.7,-14.86,0.18,1.34,-0.05,108.15,41.3,107.13,0.3
19,9.93,43.52,-16.06,-1.41,1.49,-0.05,108.15,41.3,107.13,0.3
20,9.93,43.52,-16.06,-1.41,1.49,0.74,109.85,34.63,107.32,0.3
21,9.55,35.17,-16.06,-1.41,1.49,0.74,109.85,34.63,107.32,0.32
22,9.55,35.17,-42.97,9.48,10.17,-0.74,109.85,34.63,107.32,0.32
23,9.55,35.17,-42.97,9.48,10.17,-0.74,145.38,14.63,107.33,-0.49
24,10.28,14.6,-54.07,9.48,10.17,-0.74,145.38,14.63,107.33,-0.49

0,13.53,43.92,-14.67,-0.12,1.86,0.26,108.08,43.92,98.68,1.06
1,13.53,43.92,-14.67,-0.12,1.86,0.26,108.08,43.92,98.8,0.19
2,13.02,43.68,-11.81,1.44,1.86,0.26,108.08,43.92,98.8,0.19
3,13.02,43.68,-11.81,1.44,3.05,0.99,105.56,46.87,98.8,0.19
4,14.55,44.81,-11.81,1.44,3.05,0.99,105.56,46.87,98.92,0.16
5,14.55,44.81,-13.99,-1.6,3.2,0.7,105.56,46.87,98.92,0.16
6,14.55,44.81,-13.99,-1.6,3.2,0.7,106.6,44.95,99.06,0.16
7,13.37,44.21,-11.62,-1.6,3.2,0.7,106.6,44.95,99.06,-1.02
8,13.37,44.21,-11.62,0.09,2.67,0.84,106.03,47.4,99.06,-1.02
9,13.37,44.21,-11.62,0.09,2.67,0.84,106.03,47.4,99.28,1.16
10,13.09,44.47,-13.73,-0.19,2.67,0.84,106.03,47.4,99.28,1.16
11,13.09,44.47,-13.73,-0.19,1.23,2.15,105.57,42.65,99.28,1.16
12,13.09,44.47,-13.73,-0.19,1.23,2.15,105.57,42.65,99.59,0.09
13,14.0,43.49,-14.93,-1.32,2.42,2.15,105.57,42.65,99.59,0.09
14,14.0,43.49,-14.93,-1.32,2.42,0.52,108.68,43.76,99.59,0.09
15,14.0,43.49,-14.93,-1.32,2.42,0.52,108.68,43.76,99.75,-0.49
16,11.4,44.34,-11.52,2.99,2.42,0.52,108.68,43.76,99.75,-0.49
17,11.4,44.34,-11.52,2.99,2.32,1.79,106.49,43.45,99.75,-0.49
18,11.4,44.34,-11.52,2.99,2.32,1.79,106.49,43.45,100.07,0.71
19,12.39,40.07,-26.94,4.1,2.32,1.79,106.49,43.45,100.07,0.71
20,12.39,40.07,-26.94,4.1,5.26,1.14,123.7,27.07,100.07,0.71
21,12.39,40.07,-26.94,4.1,5.26,1.14,123.7,27.07,100.24,0.21
22,13.54,18.44,-65.55,4.1,5.26,1.14,123.7,27.07,100.24,0.21
23,13.54,18.44,-65.55,42.49,18.47,-0.33,123.7,27.07,100.24,0.21
24,13.54,18.44,-65.55,42.49,18.47,-0.33,46.55,132.09,100.19,0.33

0,9.16,44.3,-13.45,-1.26,0.18,2.08,108.2,36.28,108.3,0.77
1,9.16,44.3,-13.45,-1.26,0.18,1.32,107.11,34.4,108.3,0.77
2,11.32,43.99,-19.29,-1.26,0.18,1.32,107.11,34.4,108.61,0.21
3,11.32,43.99,-19.29,-2.74,0.23,1.06,111.89,34.4,108.61,0.21
4,11.32,43.99,-19.29,-2.74,0.23,1.06,111.89,31.39,108.78,-0.31
5,10.34,44.9,-12.66,1.41,0.23,1.06,111.89,31.39,108.78,-0.31
6,10.34,44.9,-12.66,1.41,1.64,0.9,105.93,31.39,108.78,-0.31
7,10.34,44.9,-12.66,1.41,1.64,0.9,105.93,37.57,109.04,-0.17
8,10.92,44.22,-16.85,-2.5,1.64,0.9,105.93,37.57,109.04,-0.17
9,10.92,44.22,-16.85,-2.5,-0.47,0.11,111.89,30.9,109.04,-0.17
10,9.38,44.22,-16.85,-2.5,-0.47,0.11,111.89,30.9,109.1,-0.22
11,9.38,43.33,-18.32,0.06,0.75,0.11,111.89,30.9,109.1,-0.22
12,9.38,43.33,-18.32,0.06,0.75,-0.09,112.22,33.98,109.17,-0.22
13,9.02,43.33,-18.32,0.06,0.75,-0.09,112.22,33.98,109.17,0.26
14,9.02,43.8,-12.48,7.19,0.75,-0.09,112.22,33.98,109.17,0.26
15,9.02,43.8,-12.48,7.19,1.68,1.94,106.43,37.13,109.17,0.26
16,11.32,42.8,-12.48,7.19,1.68,1.94,106.43,37.13,109.4,0.83
17,11.32,42.8,-14.18,3.45,0.63,0.97,106.43,37.13,109.4,0.83
18,11.32,42.8,-14.18,3.45,0.63,0.97,107.69,38.1,109.55,-0.84
19,8.61,37.54,-31.22,3.45,0.63,0.97,107.69,38.1,109.55,-0.84
20,8.61,37.54,-31.22,11.69,8.14,0.22,107.69,38.1,109.55,-0.84
21,8.61,37.54,-31.22,11.69,8.14,0.22,129.8,17.29,109.73,0.33
22,10.09,20.03,-68.23,11.69,8.14,0.22,129.8,17.29,109.73,0.33
23,10.09,20.03,-68.23,27.45,18.54,-1.46,171.31,17.29,109.73,0.33
24,10.09,20.03,-68.23,27.45,18.54,-1.46,171.31,7.85,109.58,0.08

0,7.85,44.88,-13.06,-3.88,0.86,-0.32,114.85,29.79,97.2,0.03
1,7.85,44.88,-13.06,-3.88,0.86,2.35,106.5,36.01,97.48,0.28
2,7.87,44.87,-13.06,-3.88,0.86,2.35,106.5,36.01,97.48,0.28
3,7.87,44.87,-15.75,-0.31,2.03,3.63,106.5,36.01,97.48,0.28
4,7.87,44.87,-15.75,-0.31,2.03,3.63,109.62,26.59,97.93,0.23
5,8.35,44.87,-15.75,-0.31,2.03,3.63,109.62,26.59,97.93,0.23
6,8.35,45.12,-9.86,3.08,3.93,3.63,109.62,26.59,97.93,0.23
7,8.35,45.12,-9.86,3.08,3.93,0.94,102.61,38.68,98.24,0.23
8,9.86,44.71,-17.63,3.08,3.93,0.94,102.61,38.68,98.24,0.03
9,9.86,44.71,-17.63,-2.86,2.05,0.09,110.62,38.68,98.24,0.03
10,9.86,44.71,-17.63,-2.86,2.05,0.09,110.62,26.31,98.24,0.14
11,10.38,44.35,-11.32,-2.86,2.05,0.09,110.62,26.31,98.24,0.14
12,10.38,44.35,-11.32,1.01,2.25,-0.4,110.62,26.31,98.24,0.14
13,10.38,44.35,-11.32,1.01,2.25,-0.4,105.9,33.98,98.19,0.14
14,9.57,44.25,-11.32,1.01,2.25,-0.4,105.9,33.98,98.19,-1.0
15,9.57,44.25,-14.56,0.91,2.97,0.17,105.9,33.98,98.19,-1.0
16,9.57,44.25,-14.56,0.91,2.97,0.17,107.21,33.32,98.22,-0.05
17,9.3,44.87,-11.54,0.66,2.97,0.17,107.21,33.32,98.22,-0.05
18,9.3,44.87,-11.54,0.66,1.97,-0.34,104.74,38.92,98.23,-0.05
19,10.55,44.9,-11.54,0.66,1.97,-0.34,104.74,38.92,98.23,0.13
20,10.55,44.9,-14.82,2.4,2.44,1.81,104.74,38.92,98.23,0.13
21,10.55,44.9,-14.82,2.4,2.44,1.81,108.61,32.15,98.36,0.24
22,9.4,41.8,-16.93,2.4,2.44,1.81,108.61,32.15,98.36,0.24
23,9.4,41.8,-16.93,5.86,4.81,1.14,113.6,32.15,98.36,0.24
24,9.4,41.8,-16.93,5.86,4.81,1.14,113.6,27.04,98.57,-1.07

0,13.43,44.3,-16.56,-0.24,0.67,2.1,108.13,40.74,77.71,0.01
1,12.53,44.3,-16.56,-0.24,0.67,2.1,108.13,40.74,77.71,-1.17
2,12.53,44.78,-7.04,1.53,1.97,2.1,108.13,40.74,77.71,-1.17
3,12.53,44.78,-7.04,1.53,1.97,1.57,102.58,54.96,78.05,-1.17
4,12.14,45.69,-7.04,1.53,1.97,1.57,102.58,54.96,78.05,1.47
5,12.14,45.69,-12.52,1.74,2.6,2.88,102.58,54.96,78.05,1.47
6,12.14,45.69,-12.52,1.74,2.6,2.88,105.78,41.16,78.37,0.22
7,13.75,44.83,-12.53,1.74,2.6,2.88,105.78,41.16,78.37,0.22
8,13.75,44.83,-12.53,-3.05,-0.05,0.29,104.68,41.16,78.37,0.22
9,13.75,44.83,-12.53,-3.05,-0.05,0.29,104.68,48.26,78.52,0.02
10,11.95,45.55,-10.9,0.53,-0.05,0.29,104.68,48.26,78.52,0.02
11,11.95,45.55,-10.9,0.53,1.68,2.45,104.68,48.26,78.52,0.02
12,11.95,45.55,-10.9,0.53,1.68,2.45,103.01,50.14,78.87,-0.09
13,11.06,45.47,-13.08,-2.81,1.68,2.45,103.01,50.14,78.87,-0.09
14,11.06,45.47,-13.08,-2.81,-0.14,2.62,105.52,41.28,78.87,-0.09
15,12.79,45.47,-13.08,-2.81,-0.14,2.62,105.52,41.28,79.23,0.22
16,12.79,44.27,-11.22,-2.11,1.98,2.62,105.52,41.28,79.23,0.22
17,12.79,44.27,-11.22,-2.11,1.98,2.47,104.09,43.73,79.67,0.22
18,12.02,44.35,-11.22,-2.11,1.98,2.47,104.09,43.73,79.67,0.14
19,12.02,44.35,-14.2,-2.23,1.27,2.47,104.09,43.73,79.67,0.14
20,12.02,44.35,-14.2,-2.23,1.27,0.96,107.63,41.76,79.95,0.06
21,11.04,39.24,-14.2,-2.23,1.27,0.96,107.63,41.76,79.95,0.06
22,11.04,39.24,-20.33,0.93,5.6,0.96,107.63,41.76,79.95,0.06
23,11.04,39.24,-20.33,0.93,5.6,1.9,121.87,25.93,80.22,-0.91
24,6.04,26.87,-61.54,31.53,5.6,1.9,121.87,25.93,80.22,-0.91

0,12.54,45.58,-6.62,0.91,5.3,1.62,100.25,51.82,66.6,1.02
1,12.54,45.58,-6.62,0.91,5.3,0.24,99.15,56.22,66.57,1.02
2,16.26,43.47,-12.6,0.91,5.3,0.24,99.15,56.22,66.57,0.2
3,16.26,43.47,-12.6,-3.9,3.97,-1.38,99.15,56.22,66.57,0.2
4,16.26,43.47,-12.6,-3.9,3.97,-1.38,105.37,51.45,66.41,-0.06
5,10.85,46.13,-3.16,3.15,3.97,-1.38,105.37,51.45,66.41,-0.06
6,10.85,46.13,-3.16,3.15,4.66,1.14,95.52,70.13,66.41,-0.06
7,14.36,46.13,-3.16,3.15,4.66,1.14,95.52,70.13,66.59,0.07
8,14.36,45.47,-11.71,-1.93,2.51,1.14,95.52,70.13,66.59,0.07
9,14.36,45.47,-11.71,-1.93,2.51,0.93,104.18,48.24,66.59,0.07
10,10.21,45.47,-11.71,-1.93,2.51,0.93,104.18,48.24,66.62,0.23
11,10.21,45.82,-6.66,3.86,6.21,0.93,104.18,48.24,66.62,0.23
12,10.21,45.82,-6.66,3.86,6.21,1.23,100.87,51.46,66.79,0.23
13,13.0,45.82,-6.66,3.86,6.21,1.23,100.87,51.46,66.79,0.06
14,13.0,44.13,-10.65,4.55,8.75,1.23,100.87,51.46,66.79,0.06
15,13.0,44.13,-10.65,4.55,8.75,-0.64,101.47,56.94,66.73,0.06
16,14.16,42.43,-10.65,4.55,8.75,-0.64,101.47,56.94,66.73,0.67
17,14.16,42.43,-8.13,-1.17,2.67,0.61,101.47,56.94,66.73,0.67
18,14.16,42.43,-8.13,-1.17,2.67,0.61,103.1,56.51,66.8,0.18
19,15.86,39.0,-8.13,-1.17,2.67,0.61,103.1,56.51,66.8,0.18
20,15.86,39.0,-22.05,0.3,4.18,2.47,103.1,56.51,66.8,0.18
21,15.86,39.0,-22.05,0.3,4.18,2.47,119.45,38.52,67.07,0.28
22,15.26,26.67,-45.16,0.3,4.18,2.47,119.45,38.52,67.07,0.28
23,15.26,26.67,-45.16,19.17,17.07,3.52,119.45,38.52,67.07,0.28
24,15.26,26.67,-45.16,19.17,17.07,3.52,81.47,93.31,67.77,-1.49

0,8.85,46.93,-11.72,-7.91,2.04,-3.37,102.2,48.86,52.03,-1.34
1,8.85,46.93,-11.72,-7.91,2.04,-3.37,104.72,50.35,51.82,2.07
2,11.08,44.48,-11.73,-7.91,2.04,-3.37,104.72,50.35,51.82,2.07
3,11.08,44.48,-11.73,-2.82,-0.36,1.12,105.11,50.35,51.82,2.07
4,14.63,44.48,-11.73,-2.82,-0.36,1.12,105.11,46.84,51.82,0.8
5,14.63,41.65,-13.6,-2.82,-0.36,1.12,105.11,46.84,51.82,0.8
6,14.63,41.65,-13.6,-3.24,0.82,0.35,107.65,46.84,51.82,0.8
7,10.27,41.65,-13.6,-3.24,0.82,0.35,107.65,48.25,51.85,0.22
8,10.27,45.42,-7.2,2.69,3.68,0.35,107.65,48.25,51.85,0.22
9,10.27,45.42,-7.2,2.69,3.68,0.49,99.55,57.06,52.03,0.12
10,13.23,45.2,-7.2,2.69,3.68,0.49,99.55,57.06,52.03,0.12
11,13.23,45.2,-13.32,-2.11,0.21,0.51,99.55,57.06,52.03,0.12
12,13.23,45.2,-13.32,-2.11,0.21,0.51,104.45,46.36,52.06,0.12
13,13.28,44.61,-13.32,-2.11,0.21,0.51,104.45,46.36,52.06,-0.8
14,13.28,44.61,-9.28,0.01,3.44,0.51,104.45,46.36,52.06,-0.8
15,13.28,44.61,-9.28,0.01,3.44,0.51,103.97,51.94,52.18,0.72
16,12.45,43.77,-9.28,0.01,3.44,0.51,103.97,51.94,52.18,0.72
17,12.45,43.77,-16.46,-1.32,2.57,1.79,110.59,51.94,52.18,0.72
18,12.45,43.77,-16.46,-1.32,2.57,1.79,110.59,40.8,52.52,0.22
19,14.31,39.45,-21.45,-1.32,2.57,1.79,110.59,40.8,52.52,0.22
20,14.31,39.45,-21.45,6.17,5.13,3.02,110.59,40.8,52.52,0.22
21,14.31,39.45,-21.45,6.17,5.13,3.02,121.39,31.58,52.89,-0.77
22,15.37,18.03,-47.72,6.17,5.13,3.02,121.39,31.58,52.89,-0.77
23,15.37,18.03,-47.72,28.57,13.54,4.72,82.03,31.58,52.89,-0.77
24,8.58,18.03,-47.72,28.57,13.54,4.72,82.03,93.45,53.6,-1.73

0,10.55,45.79,-16.55,4.79,0.07,-1.82,105.42,42.51,53.37,-0.43
1,10.55,45.79,-16.55,4.79,0.07,-1.82,111.04,36.06,53.11,0.26
2,12.63,45.62,-12.18,4.79,0.07,-1.82,111.04,36.06,53.11,0.26
3,12.63,45.62,-12.18,1.3,-2.74,-0.39,104.88,49.68,53.11,0.26
4,12.63,45.62,-12.18,1.3,-2.74,-0.39,104.88,49.68,52.96,0.06
5,13.41,45.73,-14.32,-3.97,-2.74,-0.39,104.88,49.68,52.96,0.06
6,13.41,45.73,-14.32,-3.97,-2.71,1.24,106.97,44.53,52.96,0.06
7,10.6,45.73,-14.32,-3.97,-2.71,1.24,106.97,44.53,53.15,-0.64
8,10.6,44.31,-12.05,-3.88,-1.96,1.24,106.97,44.53,53.15,-0.64
9,10.6,44.31,-12.05,-3.88,-1.96,2.87,105.39,45.14,53.51,-0.64
10,10.95,44.31,-12.05,-3.88,-1.96,2.87,105.39,45.14,53.51,0.0
11,10.95,43.64,-13.82,-3.81,-0.76,2.87,105.39,45.14,53.51,0.0
12,10.95,43.64,-13.82,-3.81,-0.76,1.72,107.62,41.78,53.91,0.0
13,12.51,40.26,-13.82,-3.81,-0.76,1.72,107.62,41.78,53.91,0.04
14,12.51,40.26,-17.83,-3.27,1.09,1.61,107.62,41.78,53.91,0.04
15,12.51,40.26,-17.83,-3.27,1.09,1.61,112.76,38.01,54.12,0.61
16,13.45,38.39,-24.82,-3.27,1.09,1.61,112.76,38.01,54.12,0.61
17,13.45,38.39,-24.82,-0.58,-1.06,3.8,112.76,38.01,54.12,0.61
18,13.45,38.39,-24.82,-0.58,-1.06,3.8,122.43,28.97,54.58,-0.62
19,11.84,36.66,-30.23,14.06,-1.06,3.8,122.43,28.97,54.58,-0.62
20,11.84,36.66,-30.23,14.06,5.1,3.21,141.87,21.97,54.58,-0.62
21,14.73,36.66,-30.23,14.06,5.1,3.21,141.87,21.97,55.2,-0.38
22,14.73,6.87,-58.18,44.94,5.1,3.21,141.87,21.97,55.2,-0.38
23,14.73,6.87,-58.18,44.94,8.22,5.43,-33.94,119.68,55.2,-0.38
24,14.73,6.87,-58.18,44.94,8.22,5.43,-33.94,119.68,55.85,0.28

0,5.72,48.66,-5.22,0.72,10.19,2.53,97.05,35.98,58.77,0.77
1,5.92,48.66,-5.22,0.72,10.19,2.53,97.05,35.98,58.77,-0.63
2,5.92,46.8,-7.35,-1.3,2.52,2.53,97.05,35.98,58.77,-0.63
3,5.92,46.8,-7.35,-1.3,2.52,-0.2,98.32,44.07,58.85,-0.63
4,4.95,45.23,-5.45,-1.3,2.52,-0.2,98.32,44.07,58.85,0.51
5,4.95,45.23,-5.45,-0.11,3.3,-0.68,96.75,44.07,58.85,0.51
6,4.95,45.23,-5.45,-0.11,3.3,-0.68,96.75,45.13,58.84,0.25
7,9.98,45.29,-7.65,-1.19,3.3,-0.68,96.75,45.13,58.84,0.25
8,9.98,45.29,-7.65,-1.19,-0.38,-1.28,99.34,52.61,58.84,0.25
9,8.17,45.29,-7.65,-1.19,-0.38,-1.28,99.34,52.61,58.61,0.2
10,8.17,46.53,-5.02,1.96,1.54,-1.28,99.34,52.61,58.61,0.2
11,8.17,46.53,-5.02,1.96,1.54,1.01,99.02,50.01,58.73,0.2
12,7.44,47.93,-5.02,1.96,1.54,1.01,99.02,50.01,58.73,0.15
13,7.44,47.93,-5.06,-0.08,-0.44,1.01,99.02,50.01,58.73,0.15
14,7.44,47.93,-5.06,-0.08,-0.44,1.59,95.57,56.68,58.95,0.15
15,6.56,47.91,-5.06,-0.08,-0.44,1.59,95.57,56.68,58.95,-0.57
16,6.56,47.91,-4.1,-1.43,0.85,-0.09,95.57,56.68,58.95,-0.57
17,6.56,47.91,-4.1,-1.43,0.85,-0.09,95.17,58.84,59.04,-0.57
18,7.08,46.63,-4.1,-1.43,0.85,-0.09,95.17,58.84,59.04,0.86
19,7.08,46.63,-7.05,-4.45,1.22,0.98,95.17,58.84,59.04,0.86
20,7.08,46.63,-7.05,-4.45,1.22,0.98,99.76,46.41,59.11,0.43
21,9.35,42.3,-19.43,-1.42,1.22,0.98,99.76,46.41,59.11,0.43
22,9.35,42.3,-19.43,-1.42,3.19,1.64,115.97,21.79,59.11,0.43
23,2.37,42.3,-19.43,-1.42,3.19,1.64,115.97,21.79,59.33,-1.75
24,2.37,32.56,-38.28,19.22,9.15,1.64,115.97,21.79,59.33,-1.75

0,11.03,46.01,-11.89,-3.23,1.56,-0.13,98.61,49.67,56.68,0.17
1,11.03,46.01,-11.89,-3.23,1.56,-0.13,104.76,42.42,56.66,0.53
2,8.58,44.19,-9.66,-3.23,1.56,-0.13,104.76,42.42,56.66,0.53
3,8.58,44.19,-9.66,1.39,3.13,1.14,104.76,42.42,56.66,0.53
4,8.58,44.19,-9.66,1.39,3.13,1.14,102.8,39.26,56.79,0.16
5,7.6,47.32,-8.58,1.39,3.13,1.14,102.8,39.26,56.79,0.16
6,7.6,47.32,-8.58,1.08,2.09,-0.13,100.4,39.26,56.79,0.16
7,7.6,47.32,-8.58,1.08,2.09,-0.13,100.4,46.73,56.83,0.31
8,9.7,45.55,-9.55,-0.82,2.09,-0.13,100.4,46.73,56.83,0.31
9,9.7,45.55,-9.55,-0.82,1.97,-0.46,100.87,46.73,56.83,0.31
10,9.7,45.55,-9.55,-0.82,1.97,-0.46,100.87,46.86,56.77,0.11
11,10.09,46.02,-9.15,0.03,2.64,-0.46,100.87,46.86,56.77,0.11
12,10.09,46.02,-9.15,0.03,2.64,-0.44,101.6,47.75,56.77,0.11
13,8.93,45.32,-9.15,0.03,2.64,-0.44,101.6,47.75,56.74,0.3
14,8.93,45.32,-11.77,-1.46,1.61,-0.01,101.6,47.75,56.74,0.3
15,8.93,45.32,-11.77,-1.46,1.61,-0.01,104.87,42.08,56.75,0.27
16,12.83,41.28,-11.77,-1.46,1.61,-0.01,104.87,42.08,56.75,0.27
17,12.83,41.28,-14.91,-0.07,2.32,-0.53,110.75,42.08,56.75,0.27
18,12.83,41.28,-14.91,-0.07,2.32,-0.53,110.75,37.78,56.71,-0.86
19,11.41,35.26,-26.72,-0.07,2.32,-0.53,110.75,37.78,56.71,-0.86
20,11.41,35.26,-26.72,5.14,1.25,1.1,128.3,37.78,56.71,-0.86
21,11.41,35.26,-26.72,5.14,1.25,1.1,128.3,23.52,56.86,-0.76
22,15.42,22.28,-47.67,28.45,1.25,1.1,128.3,23.52,56.86,-0.76
23,15.42,22.28,-47.67,28.45,4.8,2.07,157.37,18.46,56.86,-0.76
24,15.34,22.28,-47.67,28.45,4.8,2.07,157.37,18.46,57.03,0.18

0,10.41,45.36,-4.59,1.9,2.33,1.72,98.78,53.2,51.4,0.37
1,10.41,45.36,-4.59,1.9,2.33,0.14,98.23,56.85,51.45,0.37
2,12.44,45.47,-4.59,1.9,2.33,0.14,98.23,56.85,51.45,-0.7
3,12.44,45.47,-6.96,0.28,1.54,0.31,98.23,56.85,51.45,-0.7
4,12.44,45.47,-6.96,0.28,1.54,0.31,99.58,53.12,51.43,0.25
5,11.38,45.68,-7.68,0.28,1.54,0.31,99.58,53.12,51.43,0.25
6,11.38,45.68,-7.68,-2.74,-0.29,0.7,99.41,53.12,51.43,0.25
7,11.38,45.68,-7.68,-2.74,-0.29,0.7,99.41,54.65,51.51,0.26
8,10.86,46.14,-8.81,-2.82,-0.29,0.7,99.41,54.65,51.51,0.26
9,10.86,46.14,-8.81,-2.82,1.32,0.55,101.08,54.65,51.51,0.26
10,10.86,46.14,-8.81,-2.82,1.32,0.55,101.08,50.5,51.64,0.08
11,11.07,45.48,-8.43,-2.82,1.32,0.55,101.08,50.5,51.64,0.08
12,11.07,45.48,-8.43,0.13,2.55,0.6,101.08,50.5,51.64,0.08
13,11.07,45.48,-8.43,0.13,2.55,0.6,101.39,52.07,51.78,0.99
14,11.94,44.05,-13.19,-2.01,2.55,0.6,101.39,52.07,51.78,0.99
15,11.94,44.05,-13.19,-2.01,0.01,1.92,103.8,39.61,51.78,0.99
16,9.47,46.2,-13.19,-2.01,0.01,1.92,103.8,39.61,52.04,-0.81
17,9.47,46.2,-6.18,2.05,2.69,1.92,103.8,39.61,52.04,-0.81
18,9.47,46.2,-6.18,2.05,2.69,-0.07,99.47,56.22,52.12,-0.81
19,13.36,40.05,-6.18,2.05,2.69,-0.07,99.47,56.22,52.12,0.93
20,13.36,40.05,-20.65,-2.47,0.91,2.61,99.47,56.22,52.12,0.93
21,13.36,40.05,-20.65,-2.47,0.91,2.61,119.33,30.42,52.36,-1.0
22,6.88,27.4,-47.95,-2.47,0.91,2.61,119.33,30.42,52.36,-1.0
23,6.88,27.4,-47.95,23.88,22.3,0.83,149.73,30.42,52.36,-1.0
24,6.88,27.4,-47.95,23.88,22.3,0.83,149.73,12.76,52.66,-0.92

0,12.15,45.36,-4.8,-2.54,3.61,-2.22,100.41,54.7,36.19,0.19
1,11.26,44.71,-4.8,-2.54,3.61,-2.22,100.41,54.7,36.19,0.1
2,11.26,44.71,-10.55,-3.67,0.54,-0.07,100.41,54.7,36.19,0.1
3,11.26,44.71,-10.55,-3.67,0.54,-0.07,102.94,47.58,36.19,-0.0
4,12.52,43.7,-10.55,-3.67,0.54,-0.07,102.94,47.58,36.19,-0.0
5,12.52,43.7,-11.85,-4.3,1.64,0.85,102.94,47.58,36.19,-0.0
6,12.52,43.7,-11.85,-4.3,1.64,0.85,104.99,43.94,36.28,-0.7
7,8.98,44.03,-15.66,-4.3,1.64,0.85,104.99,43.94,36.28,-0.7
8,8.98,44.03,-15.66,-0.82,2.74,0.18,104.99,43.94,36.28,-0.7
9,8.98,44.03,-15.66,-0.82,2.74,0.18,110.44,32.79,36.45,1.19
10,10.6,42.76,-16.36,6.03,2.74,0.18,110.44,32.79,36.45,1.19
11,10.6,42.76,-16.36,6.03,-0.04,0.42,111.46,33.31,36.45,1.19
12,10.6,42.76,-16.36,6.03,-0.04,0.42,111.46,33.31,36.42,0.37
13,10.64,40.04,-8.4,12.8,-0.04,0.42,111.46,33.31,36.42,0.37
14,10.64,40.04,-8.4,12.8,-1.18,1.68,101.93,50.32,36.42,0.37
15,10.64,40.04,-8.4,12.8,-1.18,1.68,101.93,50.32,36.62,3.0
16,10.64,52.01,9.32,13.64,-2.87,1.68,101.93,50.32,36.62,3.0
17,10.64,52.01,9.32,13.64,-2.87,3.66,82.19,46.19,37.12,3.0
18,13.8,43.75,9.32,13.64,-2.87,3.66,82.19,46.19,37.12,0.06
19,13.8,43.75,-14.93,-7.63,2.29,3.66,82.19,46.19,37.12,0.06
20,13.8,43.75,-14.93,-7.63,2.29,0.81,105.58,51.65,37.3,0.06
21,9.33,22.85,-47.81,-7.63,2.29,0.81,105.58,51.65,37.3,0.2
22,9.33,22.85,-47.81,11.26,16.31,4.27,158.4,51.65,37.3,0.2
23,9.33,22.85,-47.81,11.26,16.31,4.27,158.4,11.87,37.85,-4.13
24,10.23,-15.42,-47.81,11.26,16.31,4.27,158.4,11.87,37.85,-4.13

0,9.09,46.01,-5.15,-4.63,3.09,-0.17,97.52,60.39,45.53,0.26
1,9.09,46.01,-5.15,-4.63,3.09,-0.17,96.77,62.45,45.55,0.26
2,12.92,44.8,-5.15,-4.63,3.09,-0.17,96.77,62.45,45.55,0.15
3,12.92,44.8,-7.34,-6.45,-0.09,-0.17,96.77,62.45,45.55,0.15
4,12.92,44.8,-7.34,-6.45,-0.09,0.12,97.0,61.23,45.57,0.15
5,11.86,45.62,-6.74,-6.45,-0.09,0.12,97.0,61.23,45.57,0.13
6,11.86,45.62,-6.74,-5.69,2.69,-0.03,98.95,61.23,45.57,0.13
7,11.86,45.62,-6.74,-5.69,2.69,-0.03,98.95,58.76,45.65,0.36
8,8.87,47.36,-7.64,-3.36,2.69,-0.03,98.95,58.76,45.65,0.36
9,8.87,47.36,-7.64,-3.36,1.47,1.12,99.1,52.63,45.65,0.36
10,13.25,47.36,-7.64,-3.36,1.47,1.12,99.1,52.63,45.81,0.9
11,13.25,45.86,-9.43,-4.34,2.67,1.12,99.1,52.63,45.81,0.9
12,13.25,45.86,-9.43,-4.34,2.67,0.43,101.37,54.88,45.79,0.9
13,9.97,45.86,-9.43,-4.34,2.67,0.43,101.37,54.88,45.79,0.04
14,9.97,46.35,-7.6,-1.51,3.42,0.43,101.37,54.88,45.79,0.04
15,9.97,46.35,-7.6,-1.51,3.42,0.13,99.6,55.84,45.79,0.04
16,11.84,44.13,-7.6,-1.51,3.42,0.13,99.6,55.84,45.98,0.22
17,11.84,44.13,-10.58,-3.83,3.09,0.01,104.34,55.84,45.98,0.22
18,11.84,44.13,-10.58,-3.83,3.09,0.01,104.34,46.01,46.02,0.89
19,12.44,42.21,-14.11,-1.7,3.09,0.01,104.34,46.01,46.02,0.89
20,12.44,42.21,-14.11,-1.7,3.34,0.69,108.16,44.78,46.02,0.89
21,13.72,42.21,-14.11,-1.7,3.34,0.69,108.16,44.78,46.1,0.13
22,13.72,36.33,-27.43,5.15,3.47,0.69,108.16,44.78,46.1,0.13
23,13.72,36.33,-27.43,5.15,3.47,4.11,127.19,28.7,46.1,0.13
24,14.54,36.33,-27.43,5.15,3.47,4.11,127.19,28.7,46.59,0.04
