
,aX,aY,aZ,gX,gY,gZ,roll,pitch,yaw,vi
0,0.0,0.0,0.0,0.0,0.0,0.0,0.0,0.0,0.0,0.0
1,2.38,-2.5,51.45,0.0,0.0,0.0,0.0,0.0,0.0,0.0
2,2.38,-2.5,51.45,3.41,0.55,-1.14,-2.58,2.05,0.0,0.0
3,-1.93,-2.5,51.45,3.41,0.55,-1.14,-2.58,2.05,14.02,-0.53
4,-1.93,-1.91,50.47,3.99,-1.19,-1.14,-2.58,2.05,14.02,-0.53
5,-1.93,-1.91,50.47,3.99,-1.19,0.63,-2.34,-1.57,14.16,-0.53
6,-0.06,-3.55,50.47,3.99,-1.19,0.63,-2.34,-1.57,14.16,0.21
7,-0.06,-3.55,50.45,1.42,0.29,0.71,-2.34,-1.57,14.16,0.21
8,-0.06,-3.55,50.45,1.42,0.29,0.71,-3.92,0.32,14.23,0.21
9,-1.6,-3.17,49.68,1.42,0.29,0.71,-3.92,0.32,14.23,-0.27
10,-1.6,-3.17,49.68,0.68,-1.62,1.02,-3.92,0.32,14.23,-0.27
11,-1.6,-3.17,49.68,0.68,-1.62,1.02,-3.61,-1.66,14.39,-0.07
12,-2.02,-3.29,50.16,0.68,-1.62,1.02,-3.61,-1.66,14.39,-0.07
13,-2.02,-3.29,50.16,0.78,0.87,1.21,-3.59,-1.66,14.39,-0.07
14,-1.16,-3.29,50.16,0.78,0.87,1.21,-3.59,-2.37,14.58,-0.05
15,-1.16,-3.34,50.03,0.99,0.87,1.21,-3.59,-2.37,14.58,-0.05
16,-1.16,-3.34,50.03,0.99,2.42,1.44,-3.89,-0.85,14.58,-0.05
17,-1.52,-3.34,50.03,0.99,2.42,1.44,-3.89,-0.85,14.78,-0.17
18,-1.52,-3.81,49.29,0.11,1.43,1.3,-3.89,-0.85,14.78,-0.17
19,-1.52,-3.81,49.29,0.11,1.43,1.3,-4.3,-1.64,15.02,-0.17
20,-1.95,-3.81,49.29,0.11,1.43,1.3,-4.3,-1.64,15.02,-0.22
21,-1.95,-3.49,49.99,1.52,1.56,1.3,-4.3,-1.64,15.02,-0.22
22,-1.95,-3.49,49.99,1.52,1.56,0.79,-4.01,-1.04,15.18,-0.22
23,0.44,-3.6,49.28,1.52,1.56,0.79,-4.01,-1.04,15.18,0.68
24,0.44,-3.6,49.28,2.22,1.48,1.71,-3.57,-1.04,15.18,0.68

0,0.0,0.0,0.0,0.0,0.0,0.0,0.0,0.0,0.0,0.0
1,-3.53,6.07,48.58,0.0,0.0,0.0,0.0,0.0,0.0,0.0
2,-3.53,6.07,48.58,1.04,1.2,0.82,7.03,-3.98,0.0,0.0
3,-3.7,6.07,48.58,1.04,1.2,0.82,7.03,-3.98,18.55,-0.18
4,-3.7,6.05,49.03,0.14,1.2,0.82,7.03,-3.98,18.55,-0.18
5,-3.7,6.05,49.03,0.14,1.89,0.88,7.02,-4.07,18.55,-0.18
6,-3.54,6.05,49.03,0.14,1.89,0.88,7.02,-4.07,18.68,-0.36
7,-3.54,5.75,48.79,0.89,1.61,0.88,7.02,-4.07,18.68,-0.36
8,-3.54,5.75,48.79,0.89,1.61,1.01,6.78,-4.06,18.83,-0.36
9,-3.67,5.36,48.79,0.89,1.61,1.01,6.78,-4.06,18.83,-0.35
10,-3.67,5.36,48.88,1.03,1.52,0.6,6.78,-4.06,18.83,-0.35
11,-3.67,5.36,48.88,1.03,1.52,0.6,6.26,-3.91,18.95,-0.3
12,-3.42,5.19,49.07,1.03,1.52,0.6,6.26,-3.91,18.95,-0.3
13,-3.42,5.19,49.07,0.92,1.07,0.64,6.26,-3.91,18.95,-0.3
14,-3.42,5.19,49.07,0.92,1.07,0.64,6.29,-3.82,19.06,-0.32
15,-3.71,5.36,48.62,0.92,1.07,0.64,6.29,-3.82,19.06,-0.32
16,-3.71,5.36,48.62,1.1,1.47,0.44,6.02,-3.82,19.06,-0.32
17,-3.28,5.36,48.62,1.1,1.47,0.44,6.02,-4.29,19.16,-0.34
18,-3.28,4.8,47.81,1.7,1.47,0.44,6.02,-4.29,19.16,-0.34
19,-3.28,4.8,47.81,1.7,1.03,-0.28,5.91,-4.3,19.16,-0.34
20,-2.19,4.8,47.81,1.7,1.03,-0.28,5.91,-4.3,19.16,-0.19
21,-2.19,7.19,45.57,6.59,3.21,-0.28,5.91,-4.3,19.16,-0.19
22,-2.19,7.19,45.57,6.59,3.21,-0.51,9.09,1.14,19.03,0.16
23,0.14,5.3,45.57,6.59,3.21,-0.51,9.09,1.14,19.03,0.16
24,0.14,5.3,51.76,23.0,-9.14,3.6,9.09,1.14,19.03,0.16

0,-3.95,-2.43,49.12,0.37,1.71,0.63,-3.02,-4.11,19.96,0.13
1,-3.95,-2.43,49.12,0.37,1.71,0.63,-3.02,-4.17,20.07,-0.7
2,-2.86,-3.02,49.72,0.37,1.71,0.63,-3.02,-4.17,20.07,-0.7
3,-2.86,-3.02,49.72,2.33,2.38,0.6,-3.02,-4.17,20.07,-0.7
4,-2.86,-3.02,49.72,2.33,2.38,0.6,-3.65,-3.46,20.17,-0.35
5,-3.66,-3.42,48.62,2.33,2.38,0.6,-3.65,-3.46,20.17,-0.35
6,-3.66,-3.42,48.62,3.73,1.63,0.28,-3.65,-3.46,20.17,-0.35
7,-3.66,-3.42,48.62,3.73,1.63,0.28,-3.7,-4.61,20.24,-0.35
8,-4.43,-3.34,50.18,3.73,1.63,0.28,-3.7,-4.61,20.24,-0.37
9,-4.43,-3.34,50.18,5.82,4.12,0.62,-4.26,-4.61,20.24,-0.37
10,-4.43,-3.34,50.18,5.82,4.12,0.62,-4.26,-3.85,20.31,-0.23
11,-3.38,-6.47,49.88,4.57,-0.26,0.62,-4.26,-3.85,20.31,-0.23
12,-3.38,-6.47,49.88,4.57,-0.26,3.27,-6.86,-4.25,20.53,-0.23
13,-1.84,-6.57,49.88,4.57,-0.26,3.27,-6.86,-4.25,20.53,-0.14
14,-1.84,-6.57,50.03,3.99,4.48,2.53,-6.86,-4.25,20.53,-0.14
15,-1.84,-6.57,50.03,3.99,4.48,2.53,-7.44,-1.6,21.07,-0.18
16,-3.58,-6.42,48.79,3.99,4.48,2.53,-7.44,-1.6,21.07,-0.18
17,-3.58,-6.42,48.79,0.29,-1.17,1.2,-7.63,-1.6,21.07,-0.18
18,-2.94,-6.42,48.79,0.29,-1.17,1.2,-7.63,-4.18,21.34,-0.0
19,-2.94,-5.56,50.7,1.35,-1.17,1.2,-7.63,-4.18,21.34,-0.0
20,-2.94,-5.56,50.7,1.35,2.42,0.39,-6.09,-3.53,21.34,-0.0
21,-0.48,-5.56,50.7,1.35,2.42,0.39,-6.09,-3.53,21.41,0.92
22,-0.48,-4.14,48.19,-1.14,2.42,0.39,-6.09,-3.53,21.41,0.92
23,-0.48,-4.14,48.19,-1.14,-3.6,3.17,-4.74,-3.08,21.41,0.92
24,8.28,-4.14,48.19,-1.14,-3.6,3.17,-4.74,-3.08,21.7,-9.31

0,-6.47,-0.46,48.48,-1.34,2.06,-0.03,-1.15,-5.75,25.82,-0.55
1,-6.47,-0.46,48.48,-1.34,2.06,-0.03,-0.6,-6.87,25.85,-0.55
2,-3.86,-1.14,49.33,-1.34,2.06,-0.03,-0.6,-6.87,25.85,-0.1
3,-3.86,-1.14,49.33,-0.91,2.18,-0.96,-0.6,-6.87,25.85,-0.1
4,-5.0,-1.14,49.33,-0.91,2.18,-0.96,-1.18,-4.83,25.73,-0.15
5,-5.0,-0.83,50.05,-0.91,2.18,-0.96,-1.18,-4.83,25.73,-0.15
6,-5.0,-0.83,50.05,0.97,1.38,0.47,-0.93,-5.74,25.73,-0.15
7,-4.38,-0.83,50.05,0.97,1.38,0.47,-0.93,-5.74,25.71,-0.95
8,-4.38,-0.83,49.29,0.62,1.38,0.47,-0.93,-5.74,25.71,-0.95
9,-4.38,-0.83,49.29,0.62,2.19,0.76,-0.97,-5.82,25.71,-0.95
10,-5.16,-0.83,49.29,0.62,2.19,0.76,-0.97,-5.82,25.81,-0.22
11,-5.16,-0.85,49.1,1.03,2.36,0.76,-0.97,-5.82,25.81,-0.22
12,-5.16,-0.85,49.1,1.03,2.36,0.45,-1.18,-6.18,25.91,-0.22
13,-3.83,-1.79,49.1,1.03,2.36,0.45,-1.18,-6.18,25.91,-0.23
14,-3.83,-1.79,49.51,-0.31,-0.37,0.45,-1.18,-6.18,25.91,-0.23
15,-3.83,-1.79,49.51,-0.31,-0.37,0.43,-2.05,-4.47,25.93,-0.23
16,-7.93,-1.18,49.51,-0.31,-0.37,0.43,-2.05,-4.47,25.93,-1.18
17,-7.93,-1.18,48.62,0.03,2.66,0.25,-2.05,-4.47,25.93,-1.18
18,-7.93,-1.18,48.62,0.03,2.66,0.25,-1.29,-6.93,26.06,-1.18
19,-7.93,-1.18,48.62,0.03,2.66,0.25,-1.29,-6.93,26.06,1.04
20,-3.46,-0.72,49.58,3.44,2.66,0.25,-1.29,-6.93,26.06,1.04
21,-3.46,-0.72,49.58,3.44,5.1,1.63,-0.28,-4.49,26.06,1.04
22,-2.73,-0.07,49.58,3.44,5.1,1.63,-0.28,-4.49,26.1,-0.13
23,-2.73,-0.07,44.85,10.14,13.82,0.96,-0.28,-4.49,26.1,-0.13
24,-2.73,-0.07,44.85,10.14,13.82,0.96,-2.62,-0.02,26.58,-0.07

0,-3.8,-2.93,49.83,0.55,1.52,-0.19,-3.85,-4.26,32.01,-0.06
1,-3.8,-2.93,49.83,0.55,1.52,-0.19,-3.31,-4.15,31.98,-0.06
2,-3.37,-2.7,49.83,0.55,1.52,-0.19,-3.31,-4.15,31.98,0.65
3,-3.37,-2.7,50.17,1.72,0.24,0.85,-3.31,-4.15,31.98,0.65
4,-3.37,-2.7,50.17,1.72,0.24,0.85,-3.22,-6.04,32.05,1.8
5,-1.63,-4.09,50.65,1.72,0.24,0.85,-3.22,-6.04,32.05,1.8
6,-1.63,-4.09,50.65,0.55,2.09,0.2,-4.14,-6.04,32.05,1.8
7,-3.81,-4.09,50.65,0.55,2.09,0.2,-4.14,-2.35,32.05,-1.05
8,-3.81,-2.85,48.38,-0.97,2.09,0.2,-4.14,-2.35,32.05,-1.05
9,-3.81,-2.85,48.38,-0.97,-0.84,-0.38,-3.49,-3.91,32.05,-1.05
10,-3.71,-2.85,48.38,-0.97,-0.84,-0.38,-3.49,-3.91,32.08,-0.41
11,-3.71,-2.88,49.44,-0.96,-0.84,-0.38,-3.49,-3.91,32.08,-0.41
12,-3.71,-2.88,49.44,-0.96,1.32,0.3,-3.21,-4.09,32.08,-0.41
13,-3.14,-2.88,49.44,-0.96,1.32,0.3,-3.21,-4.09,32.11,-0.38
14,-3.14,-2.84,49.53,0.4,1.79,0.3,-3.21,-4.09,32.11,-0.38
15,-3.14,-2.84,49.53,0.4,1.79,-0.03,-3.43,-3.6,32.14,-0.38
16,-2.76,-3.27,49.53,0.4,1.79,-0.03,-3.43,-3.6,32.14,-0.08
17,-2.76,-3.27,49.03,0.03,2.22,0.6,-3.43,-3.6,32.14,-0.08
18,-2.76,-3.27,49.03,0.03,2.22,0.6,-3.83,-3.37,32.2,-0.27
19,-2.76,-2.98,49.38,0.03,2.22,0.6,-3.83,-3.37,32.2,-0.27
20,-2.76,-2.98,49.38,0.61,1.59,0.81,-2.98,-3.37,32.2,-0.27
21,-2.19,-2.98,49.38,0.61,1.59,0.81,-2.98,-3.68,32.29,-0.26
22,-2.19,-0.83,49.16,5.86,1.59,0.81,-2.98,-3.68,32.29,-0.26
23,-2.19,-0.83,49.16,5.86,6.78,2.24,-1.16,-2.96,32.29,-0.26
24,1.49,-0.83,49.16,5.86,6.78,2.24,-1.16,-2.96,32.5,0.09

0,0.58,-2.88,49.08,-0.74,0.96,-0.37,-2.53,-0.04,36.97,-0.15
1,0.58,-2.88,49.08,-0.74,0.96,0.92,-3.5,0.49,37.01,-0.15
2,-0.19,-2.34,49.08,-0.74,0.96,0.92,-3.5,0.49,37.01,-0.26
3,-0.19,-2.34,50.01,0.26,-0.85,0.69,-3.5,0.49,37.01,-0.26
4,-0.19,-2.34,50.01,0.26,-0.85,0.69,-2.85,-1.27,37.13,0.37
5,-0.16,-2.33,49.36,0.26,-0.85,0.69,-2.85,-1.27,37.13,0.37
6,-0.16,-2.33,49.36,0.41,0.82,-0.71,-2.85,-1.27,37.13,0.37
7,-0.16,-2.33,49.36,0.41,0.82,-0.71,-2.78,-0.15,37.1,-0.48
8,-0.77,-2.49,49.51,0.41,0.82,-0.71,-2.78,-0.15,37.1,-0.48
9,-0.77,-2.49,49.51,0.71,0.88,-0.2,-3.44,-0.15,37.1,-0.48
10,-0.77,-2.49,49.51,0.71,0.88,-0.2,-3.44,-0.31,37.06,-0.1
11,-0.59,-3.26,49.62,-0.03,0.88,-0.2,-3.44,-0.31,37.06,-0.1
12,-0.59,-3.26,49.62,-0.03,0.22,0.83,-3.52,-1.04,37.06,-0.1
13,-1.32,-3.26,49.62,-0.03,0.22,0.83,-3.52,-1.04,37.12,-0.52
14,-1.32,-2.98,49.92,0.22,0.22,0.83,-3.52,-1.04,37.12,-0.52
15,-1.32,-2.98,49.92,0.22,1.06,-0.38,-3.4,-0.72,37.12,-0.52
16,-1.13,-2.98,49.92,0.22,1.06,-0.38,-3.4,-0.72,37.15,-0.28
17,-1.13,-2.96,49.84,0.39,1.03,-0.38,-3.4,-0.72,37.15,-0.28
18,-1.13,-2.96,49.84,0.39,1.03,0.37,-3.5,-0.76,37.17,-0.28
19,0.74,-1.47,49.84,0.39,1.03,0.37,-3.5,-0.76,37.17,-0.24
20,0.74,-1.47,49.06,1.57,1.57,0.93,-3.5,-0.76,37.17,-0.24
21,-0.22,-1.47,49.06,1.57,1.57,0.93,-0.89,1.39,37.26,0.21
22,-0.22,-1.32,51.01,1.57,1.57,0.93,-0.89,1.39,37.26,0.21
23,-0.22,-1.32,51.01,14.71,6.03,4.4,-4.94,-0.47,37.26,0.21
24,-1.79,-1.32,51.01,14.71,6.03,4.4,-4.94,-0.47,37.9,-0.04

0,-14.83,-3.39,66.82,-2.67,-0.52,5.62,-2.97,1.61,59.34,-3.62
1,-14.83,-3.39,66.82,10.92,-2.18,5.63,-2.32,1.61,59.34,-3.62
2,-14.83,-3.39,66.82,10.92,-2.18,5.63,-2.32,-8.85,60.76,2.6
3,-1.62,-1.59,43.05,10.92,-2.18,5.63,-2.32,-8.85,60.76,2.6
4,-1.62,-1.59,43.05,-6.57,4.39,0.74,-1.5,-8.85,60.76,2.6
5,-6.15,-1.59,43.05,-6.57,4.39,0.74,-1.5,-2.89,60.66,-0.45
6,-6.15,-2.91,51.86,6.12,-2.91,0.74,-1.5,-2.89,60.66,-0.45
7,-6.15,-2.91,51.86,6.12,-2.91,0.73,-3.42,-7.13,60.66,-0.45
8,-5.92,-3.3,51.86,6.12,-2.91,0.73,-3.42,-7.13,60.8,-0.17
9,-5.92,-3.3,48.23,2.66,0.77,0.72,-3.42,-7.13,60.8,-0.17
10,-5.92,-3.3,48.23,2.66,0.77,0.72,-3.99,-7.15,60.88,-0.19
11,-5.98,-4.57,51.43,2.66,0.77,0.72,-3.99,-7.15,60.88,-0.19
12,-5.98,-4.57,51.43,4.09,0.88,0.27,-5.08,-7.15,60.88,-0.19
13,-5.17,-4.57,51.43,4.09,0.88,0.27,-5.08,-6.3,60.91,-0.27
14,-5.17,-4.65,49.47,1.49,0.88,0.27,-5.08,-6.3,60.91,-0.27
15,-5.17,-4.65,49.47,1.49,0.77,1.39,-5.27,-5.97,60.91,-0.27
16,-7.71,-4.65,49.47,1.49,0.77,1.39,-5.27,-5.97,61.03,-0.26
17,-7.71,-4.82,48.72,0.39,0.77,1.39,-5.27,-5.97,61.03,-0.26
18,-7.71,-4.82,48.72,0.39,-0.23,0.85,-5.43,-8.16,61.25,-0.26
19,-5.86,-4.78,48.72,0.39,-0.23,0.85,-5.43,-8.16,61.25,-0.05
20,-5.86,-4.78,48.05,1.66,0.62,0.86,-5.43,-8.16,61.25,-0.05
21,-5.86,-4.78,48.05,1.66,0.62,0.86,-5.63,-6.91,61.37,-0.29
22,-3.93,-3.41,49.3,1.66,0.62,0.86,-5.63,-6.91,61.37,-0.29
23,-3.93,-3.41,49.3,5.59,-2.27,2.37,-5.63,-6.91,61.37,-0.29
24,-3.93,-3.41,49.3,5.59,-2.27,2.37,-4.03,-4.35,61.63,-3.9

0,-8.61,-2.79,49.96,3.14,-5.18,-2.04,-3.11,-1.65,67.72,-1.4
1,-8.61,-2.79,49.96,3.14,-5.18,-0.6,-3.5,-9.64,67.72,-1.4
2,-7.52,-2.79,49.96,3.14,-5.18,-0.6,-3.5,-9.64,67.74,0.95
3,-7.52,-2.86,48.34,0.76,1.88,-0.6,-3.5,-9.64,67.74,0.95
4,-7.52,-2.86,48.34,0.76,1.88,1.07,-3.13,-9.67,67.7,0.95
5,-3.89,-3.27,48.34,0.76,1.88,1.07,-3.13,-9.67,67.7,0.53
6,-3.89,-3.27,50.81,2.59,0.84,1.0,-3.13,-9.67,67.7,0.53
7,-3.89,-3.27,50.81,2.59,0.84,1.0,-3.74,-7.0,67.76,0.53
8,-5.32,-4.06,48.57,2.59,0.84,1.0,-3.74,-7.0,67.76,-0.02
9,-5.32,-4.06,48.57,0.07,0.96,1.81,-4.51,-7.0,67.76,-0.02
10,-8.37,-4.06,48.57,0.07,0.96,1.81,-4.51,-7.03,67.94,-0.18
11,-8.37,-4.25,50.16,0.87,0.96,1.81,-4.51,-7.03,67.94,-0.18
12,-8.37,-4.25,50.16,0.87,-1.59,0.56,-4.51,-7.03,67.94,-0.18
13,-8.36,-4.25,50.16,0.87,-1.59,0.56,-4.51,-10.0,68.17,-0.01
14,-8.36,-3.67,49.33,0.45,-1.59,0.56,-4.51,-10.0,68.17,-0.01
15,-8.36,-3.67,49.33,0.45,1.72,0.85,-4.27,-9.37,68.17,-0.01
16,-8.36,-3.67,49.33,0.45,1.72,0.85,-4.27,-9.37,68.28,-0.7
17,-6.08,-3.67,49.38,-0.39,1.72,0.85,-4.27,-9.37,68.28,-0.7
18,-6.08,-3.67,49.38,-0.39,1.68,0.29,-4.31,-9.37,68.28,-0.7
19,-6.08,-3.67,49.38,-0.39,1.68,0.29,-4.31,-7.17,68.31,-1.16
20,-7.86,-3.09,48.25,-0.39,1.68,0.29,-4.31,-7.17,68.31,-1.16
21,-7.86,-3.09,48.25,-0.57,1.57,0.61,-4.0,-7.17,68.31,-1.16
22,-7.86,-3.09,48.25,-0.57,1.57,0.61,-4.0,-9.12,68.48,-0.12
23,-5.69,-2.87,48.46,3.0,1.57,0.61,-4.0,-9.12,68.48,-0.12
24,-5.69,-2.87,48.46,3.0,4.38,2.06,-3.85,-7.15,68.48,-0.12

0,-7.76,-5.87,49.32,2.32,1.34,5.31,-7.07,-10.42,95.47,-0.8
1,-12.84,-5.87,49.32,2.32,1.34,5.31,-7.07,-10.42,96.31,-1.73
2,-12.84,-6.84,49.45,3.74,4.46,5.31,-7.07,-10.42,96.31,-1.73
3,-12.84,-6.84,49.45,3.74,4.46,2.83,-7.84,-12.22,96.31,-1.73
4,-3.5,-6.84,49.45,3.74,4.46,2.83,-7.84,-12.22,97.16,-0.04
5,-3.5,-7.9,47.41,1.92,4.15,2.83,-7.84,-12.22,97.16,-0.04
6,-3.5,-7.9,47.41,1.92,4.15,6.19,-9.2,-7.94,97.75,-0.04
7,-8.25,-9.24,47.41,1.92,4.15,6.19,-9.2,-7.94,97.75,-2.04
8,-8.25,-9.24,49.38,1.37,6.8,7.77,-9.2,-7.94,97.75,-2.04
9,-8.25,-9.24,49.38,1.37,6.8,7.77,-10.03,-8.82,99.23,1.73
10,-4.5,-8.08,48.36,1.37,6.8,7.77,-10.03,-8.82,99.23,1.73
11,-4.5,-8.08,48.36,1.35,7.65,15.48,-10.06,-8.82,99.23,1.73
12,-4.5,-8.08,48.36,1.35,7.65,15.48,-10.06,-7.91,101.3,-2.54
13,-6.42,-9.21,49.82,1.35,7.65,15.48,-10.06,-7.91,101.3,-2.54
14,-6.42,-9.21,49.82,2.63,5.8,2.84,-10.83,-7.91,101.3,-2.54
15,-5.58,-9.21,49.82,2.63,5.8,2.84,-10.83,-5.63,102.45,-0.33
16,-5.58,-9.85,48.99,3.28,5.8,2.84,-10.83,-5.63,102.45,-0.33
17,-5.58,-9.85,48.99,3.28,4.94,7.59,-11.31,-5.63,102.45,-0.33
18,-6.66,-9.85,48.99,3.28,4.94,7.59,-11.31,-6.03,103.47,-0.3
19,-6.66,-10.45,49.78,-0.85,1.93,7.59,-11.31,-6.03,103.47,-0.3
20,-6.66,-10.45,49.78,-0.85,1.93,3.23,-11.84,-6.85,104.23,-0.3
21,-4.12,-10.84,49.78,-0.85,1.93,3.23,-11.84,-6.85,104.23,0.74
22,-4.12,-10.84,49.42,1.85,4.66,3.23,-11.84,-6.85,104.23,0.74
23,-4.12,-10.84,49.42,1.85,4.66,1.93,-12.02,-4.55,104.5,0.74
24,-3.87,-9.33,46.79,1.85,4.66,1.93,-12.02,-4.55,104.5,-0.29

0,1.27,-6.59,48.48,15.72,-3.46,6.35,-3.76,-1.49,91.84,-0.3
1,1.27,-6.59,48.48,1.72,1.62,5.13,-5.73,-1.49,91.84,-0.3
2,1.17,-6.59,48.48,1.72,1.62,5.13,-5.73,2.03,92.65,-3.7
3,1.17,-5.45,48.78,4.46,1.62,5.13,-5.73,2.03,92.65,-3.7
4,1.17,-5.45,48.78,4.46,3.38,0.53,-6.44,1.84,92.65,-3.7
5,0.3,-5.45,48.78,4.46,3.38,0.53,-6.44,1.84,93.15,1.04
6,0.3,-4.92,49.91,-0.73,1.65,0.53,-6.44,1.84,93.15,1.04
7,0.3,-4.92,49.91,-0.73,1.65,1.68,-7.33,0.92,93.37,1.04
8,2.02,-4.87,49.91,-0.73,1.65,1.68,-7.33,0.92,93.37,-0.17
9,2.02,-4.87,49.29,-1.77,-1.17,1.68,-7.33,0.92,93.37,-0.17
10,2.02,-4.87,49.29,-1.77,-1.17,-0.87,-6.35,2.3,93.38,-0.17
11,-0.35,-4.72,49.29,-1.77,-1.17,-0.87,-6.35,2.3,93.38,-0.2
12,-0.35,-4.72,49.83,-0.04,1.0,-0.87,-6.35,2.3,93.38,-0.2
13,-0.35,-4.72,49.83,-0.04,1.0,-0.01,-5.4,0.18,93.39,-0.2
14,1.17,-5.92,49.83,-0.04,1.0,-0.01,-5.4,0.18,93.39,0.72
15,1.17,-5.92,48.58,0.78,0.96,-0.16,-5.4,0.18,93.39,0.72
16,1.17,-5.92,48.58,0.78,0.96,-0.16,-6.83,1.63,93.28,0.72
17,0.61,-5.66,48.8,0.78,0.96,-0.16,-6.83,1.63,93.28,0.19
18,0.61,-5.66,48.8,2.24,-0.17,0.88,-6.83,1.63,93.28,0.19
19,0.61,-5.66,48.8,2.24,-0.17,0.88,-6.56,0.51,93.33,0.03
20,1.01,-6.18,48.27,2.24,-0.17,0.88,-6.56,0.51,93.33,0.03
21,1.01,-6.18,48.27,6.2,1.79,1.23,-7.63,0.51,93.33,0.03
22,1.07,-6.18,48.27,6.2,1.79,1.23,-7.63,2.51,93.5,0.23
23,1.07,-17.1,64.76,17.11,1.79,1.23,-7.63,2.51,93.5,0.23
24,1.07,-17.1,64.76,17.11,4.84,3.01,-13.24,5.75,93.5,0.23

0,4.01,-2.93,50.39,0.16,0.67,-1.91,-3.3,2.4,115.59,0.22
1,4.01,-2.93,50.39,0.16,7.28,-3.34,-4.07,1.99,115.59,0.22
2,-0.29,-2.93,50.39,0.16,7.28,-3.34,-4.07,1.99,115.31,-0.15
3,-0.29,-2.78,48.15,-2.63,7.28,-3.34,-4.07,1.99,115.31,-0.15
4,-0.29,-2.78,48.15,-2.63,1.79,1.8,-3.03,-0.33,115.31,-0.15
5,0.72,-1.88,48.15,-2.63,1.79,1.8,-3.03,-0.33,115.14,-0.35
6,0.72,-1.88,48.88,-0.17,4.02,1.71,-3.03,-0.33,115.14,-0.35
7,0.72,-1.88,48.88,-0.17,4.02,1.71,-2.17,-0.13,115.44,-0.35
8,1.47,-1.88,48.88,-0.17,4.02,1.71,-2.17,-0.13,115.44,-0.34
9,1.47,-3.02,49.57,3.27,-2.76,1.71,-2.17,-0.13,115.44,-0.34
10,1.47,-3.02,49.57,3.27,-2.76,1.01,-3.3,-0.54,115.56,-0.28
11,-0.61,-3.53,48.86,4.55,-2.76,1.01,-3.3,-0.54,115.56,-0.28
12,-0.61,-3.53,48.86,4.55,1.84,-0.53,-3.88,-0.67,115.56,-0.28
13,-0.06,-3.53,48.86,4.55,1.84,-0.53,-3.88,-0.67,115.61,-0.27
14,-0.06,-4.23,50.15,3.45,-2.54,-0.53,-3.88,-0.67,115.61,-0.27
15,-0.06,-4.23,50.15,3.45,-2.54,-2.39,-4.82,-1.22,115.31,-0.27
16,-2.1,-4.62,50.15,3.45,-2.54,-2.39,-4.82,-1.22,115.31,-0.24
17,-2.1,-4.62,50.49,3.27,0.52,-2.13,-4.82,-1.22,115.31,-0.24
18,-2.1,-4.62,50.49,3.27,0.52,-2.13,-5.44,-2.2,114.97,-0.24
19,-2.33,-4.68,49.9,3.27,0.52,-2.13,-5.44,-2.2,114.97,-0.14
20,-2.33,-4.68,49.9,2.87,4.22,-3.43,-5.44,-2.2,114.97,-0.14
21,-2.33,-4.68,49.9,2.87,4.22,-3.43,-4.57,-4.09,114.44,-0.11
22,-3.99,-3.38,53.41,2.87,4.22,-3.43,-4.57,-4.09,114.44,-0.11
23,-3.99,-3.38,53.41,4.07,9.01,-7.14,-5.35,-4.09,114.44,-0.11
24,0.2,-3.38,53.41,4.07,9.01,-7.14,-5.35,-1.67,113.29,1.39

0,-3.62,-3.45,49.41,0.84,2.15,1.14,-4.82,-2.84,111.18,-0.02
1,-3.62,-3.45,49.41,0.84,1.48,0.51,-3.66,-2.4,111.18,-0.02
2,-1.27,-3.45,49.41,0.84,1.48,0.51,-3.66,-2.4,111.28,-0.07
3,-1.27,-4.22,48.37,0.21,3.58,0.51,-3.66,-2.4,111.28,-0.07
4,-1.27,-4.22,48.37,0.21,3.58,0.96,-4.58,-2.78,111.4,-0.07
5,-0.78,-4.25,49.5,0.21,3.58,0.96,-4.58,-2.78,111.4,-0.16
6,-0.78,-4.25,49.5,-0.41,-0.41,1.04,-4.98,-2.78,111.4,-0.16
7,-0.78,-4.25,49.5,-0.41,-0.41,1.04,-4.98,-2.28,111.51,-0.5
8,-3.98,-3.37,47.78,-0.41,-0.41,1.04,-4.98,-2.28,111.51,-0.5
9,-3.98,-3.37,47.78,-1.27,1.99,0.42,-4.24,-2.28,111.51,-0.5
10,-1.33,-3.37,47.78,-1.27,1.99,0.42,-4.24,-3.25,111.69,-0.11
11,-1.33,-4.31,49.83,-0.8,1.99,0.42,-4.24,-3.25,111.69,-0.11
12,-1.33,-4.31,49.83,-0.8,0.85,0.96,-4.6,-2.47,111.69,-0.11
13,-3.66,-4.31,49.83,-0.8,0.85,0.96,-4.6,-2.47,111.79,-0.3
14,-3.66,-3.09,49.37,-0.42,0.85,0.96,-4.6,-2.47,111.79,-0.3
15,-3.66,-3.09,49.37,-0.42,1.88,-0.26,-4.11,-2.47,111.79,-0.3
16,-3.66,-3.09,49.37,-0.42,1.88,-0.26,-4.11,-1.68,111.91,-0.07
17,-0.96,-3.83,49.32,-0.13,1.83,-0.26,-4.11,-1.68,111.91,-0.07
18,-0.96,-3.83,49.32,-0.13,1.83,2.02,-4.44,-3.37,112.05,-0.07
19,1.16,-1.16,49.32,-0.13,1.83,2.02,-4.44,-3.37,112.05,-0.03
20,1.16,-1.16,47.5,2.68,5.64,2.02,-4.44,-3.37,112.05,-0.03
21,1.16,-1.16,47.5,2.68,5.64,2.67,-1.5,-0.61,112.33,-0.03
22,0.13,-1.16,47.5,2.68,5.64,2.67,-1.5,-0.61,112.33,-0.29
23,0.13,-20.45,99.99,7.12,2.35,2.67,-1.5,-0.61,112.33,-0.29
24,0.13,-20.45,99.99,7.12,2.35,0.43,-10.04,-3.12,112.62,-0.29

0,1.39,-3.26,50.14,2.14,-0.1,0.16,-3.56,1.24,122.15,-1.18
1,1.51,-3.26,50.14,2.14,-0.1,0.16,-3.56,1.24,122.2,-0.13
2,1.51,-4.44,50.06,2.08,-0.1,0.16,-3.56,1.24,122.2,-0.13
3,1.51,-4.44,50.06,2.08,0.62,-0.85,-5.35,2.58,122.2,-0.13
4,0.64,-4.44,50.06,2.08,0.62,-0.85,-5.35,2.58,122.19,0.12
5,0.64,-3.99,49.5,1.59,0.22,-0.85,-5.35,2.58,122.19,0.12
6,0.64,-3.99,49.5,1.59,0.22,0.77,-4.64,0.97,122.31,0.12
7,1.95,-4.27,49.5,1.59,0.22,0.77,-4.64,0.97,122.31,-0.06
8,1.95,-4.27,50.12,1.54,1.93,0.69,-4.64,0.97,122.31,-0.06
9,1.95,-4.27,50.12,1.54,1.93,0.69,-4.98,1.62,122.4,-1.05
10,1.82,-5.16,50.12,1.54,1.93,0.69,-4.98,1.62,122.4,-1.05
11,1.82,-5.16,49.95,-0.53,1.45,1.46,-4.98,1.62,122.4,-1.05
12,1.82,-5.16,49.95,-0.53,1.45,1.46,-5.72,0.95,122.59,-1.05
13,0.74,-4.44,49.94,-0.53,1.45,1.46,-5.72,0.95,122.59,-0.2
14,0.74,-4.44,49.94,-0.01,0.76,1.18,-5.25,0.95,122.59,-0.2
15,0.74,-4.44,49.94,-0.01,0.76,1.18,-5.25,1.22,122.77,-0.91
16,0.31,-4.53,49.47,0.21,0.76,1.18,-5.25,1.22,122.77,-0.91
17,0.31,-4.53,49.47,0.21,1.38,0.77,-5.15,0.83,122.77,-0.91
18,2.27,-4.53,49.47,0.21,1.38,0.77,-5.15,0.83,122.93,0.54
19,2.27,-2.92,49.92,2.52,2.63,0.77,-5.15,0.83,122.93,0.54
20,2.27,-2.92,49.92,2.52,2.63,2.61,-2.41,3.84,123.2,0.54
21,7.78,-2.92,49.92,2.52,2.63,2.61,-2.41,3.84,123.2,-0.57
22,7.78,-15.23,86.52,9.93,5.44,2.61,-2.41,3.84,123.2,-0.57
23,7.78,-15.23,86.52,9.93,5.44,2.18,-10.84,3.7,123.2,-0.57
24,1.55,-51.38,86.52,9.93,5.44,2.18,-10.84,3.7,123.66,-0.19

0,-0.31,-2.75,51.05,4.12,0.52,-1.04,-2.2,-1.03,130.77,-2.76
1,-0.31,-2.75,47.5,0.95,2.88,-0.23,-2.2,-1.03,130.77,-2.76
2,-0.31,-2.75,47.5,0.95,2.88,-0.23,-3.14,-1.87,130.65,-0.21
3,-2.34,-3.64,49.4,2.14,2.88,-0.23,-3.14,-1.87,130.65,-0.21
4,-2.34,-3.64,49.4,2.14,0.67,-0.5,-3.99,-1.87,130.65,-0.21
5,-2.04,-3.64,49.4,2.14,0.67,-0.5,-3.99,-2.89,130.59,-0.14
6,-2.04,-3.66,50.07,-0.01,-0.18,-0.5,-3.99,-2.89,130.59,-0.14
7,-2.04,-3.66,50.07,-0.01,-0.18,0.46,-4.21,-1.98,130.56,-0.71
8,-2.53,-3.5,49.89,-0.01,-0.18,0.46,-4.21,-1.98,130.56,-0.71
9,-2.53,-3.5,49.89,1.62,2.06,0.67,-4.21,-1.98,130.56,-0.71
10,-2.53,-3.5,49.89,1.62,2.06,0.67,-3.91,-2.47,130.64,-0.68
11,-3.46,-3.56,49.04,1.62,2.06,0.67,-3.91,-2.47,130.64,-0.68
12,-3.46,-3.56,49.04,-0.34,0.37,0.21,-4.04,-2.47,130.64,-0.68
13,-3.46,-3.56,49.04,-0.34,0.37,0.21,-4.04,-3.34,130.73,-0.17
14,-1.5,-3.78,50.09,0.24,0.37,0.21,-4.04,-3.34,130.73,-0.17
15,-1.5,-3.78,50.09,0.24,0.93,0.82,-4.25,-2.09,130.73,-0.17
16,-4.42,-3.78,50.09,0.24,0.93,0.82,-4.25,-2.09,130.8,-0.68
17,-4.42,-2.54,48.77,0.09,2.26,0.82,-4.25,-2.09,130.8,-0.68
18,-4.42,-2.54,48.77,0.09,2.26,0.48,-3.06,-3.19,131.01,-0.68
19,-2.44,-0.82,48.77,0.09,2.26,0.48,-3.06,-3.19,131.01,-0.58
20,-2.44,-0.82,48.79,4.27,9.06,1.87,-3.06,-3.19,131.01,-0.58
21,-2.44,-0.82,48.79,4.27,9.06,1.87,-2.3,0.63,131.23,-0.58
22,7.04,-16.3,48.79,4.27,9.06,1.87,-2.3,0.63,131.23,0.22
23,7.04,-16.3,99.99,7.93,4.41,5.88,-2.3,0.63,131.23,0.22
24,7.04,-16.3,99.99,7.93,4.41,5.88,-10.25,-3.03,131.96,0.22

0,-1.46,-1.45,51.17,-0.21,-2.84,0.56,-1.54,-1.8,140.08,-0.3
1,-1.46,-1.45,51.17,-0.21,-2.84,0.56,-0.91,-3.02,140.36,-0.3
2,-1.39,-0.09,51.17,-0.21,-2.84,0.56,-0.91,-3.02,140.36,1.33
3,-1.39,-0.09,49.22,3.05,4.33,-1.46,-0.91,-3.02,140.36,1.33
4,-1.39,-0.09,49.22,3.05,4.33,-1.46,0.62,-1.18,140.24,0.61
5,1.02,1.04,48.2,3.05,4.33,-1.46,0.62,-1.18,140.24,0.61
6,1.02,1.04,48.2,-3.78,5.36,2.12,0.62,-1.18,140.24,0.61
7,1.02,1.04,48.2,-3.78,5.36,2.12,1.46,-0.76,140.32,-0.29
8,-0.71,0.95,51.12,-0.38,5.36,2.12,1.46,-0.76,140.32,-0.29
9,-0.71,0.95,51.12,-0.38,1.78,1.94,0.92,-0.76,140.32,-0.29
10,-4.44,0.95,51.12,-0.38,1.78,1.94,0.92,-0.85,140.63,1.42
11,-4.44,-1.3,51.35,5.01,1.78,1.94,0.92,-0.85,140.63,1.42
12,-4.44,-1.3,51.35,5.01,-4.84,-1.83,-0.88,-2.56,140.63,1.42
13,-0.11,-1.3,51.35,5.01,-4.84,-1.83,-0.88,-2.56,140.67,0.56
14,-0.11,-0.64,49.43,1.73,2.25,-1.83,-0.88,-2.56,140.67,0.56
15,-0.11,-0.64,49.43,1.73,2.25,-1.64,-0.51,-0.16,140.67,0.56
16,-4.9,-0.64,49.43,1.73,2.25,-1.64,-0.51,-0.16,140.36,-0.03
17,-4.9,-0.82,49.05,1.89,1.93,-1.64,-0.51,-0.16,140.36,-0.03
18,-4.9,-0.82,49.05,1.89,1.93,-0.19,-0.08,-2.24,140.34,-0.03
19,1.59,-0.82,49.05,1.89,1.93,-0.19,-0.08,-2.24,140.34,0.11
20,1.59,0.8,49.57,3.69,2.53,-0.19,-0.08,-2.24,140.34,0.11
21,1.59,0.8,49.57,3.69,2.53,2.39,0.62,0.79,140.45,0.11
22,1.48,-4.84,54.45,3.69,2.53,2.39,0.62,0.79,140.45,0.11
23,1.48,-4.84,54.45,8.87,10.07,3.41,-4.16,0.79,140.45,0.11
24,1.48,-4.84,54.45,8.87,10.07,3.41,-4.16,4.63,140.91,1.13

0,-3.34,-5.44,49.8,0.48,1.09,1.21,-5.84,-4.1,159.89,-0.27
1,-3.34,-5.44,49.8,0.48,1.09,1.32,-6.18,-3.62,160.1,-0.27
2,-2.66,-5.46,49.8,0.48,1.09,1.32,-6.18,-3.62,160.1,-0.66
3,-2.66,-5.46,49.66,0.87,1.45,1.23,-6.18,-3.62,160.1,-0.66
4,-2.66,-5.46,49.66,0.87,1.45,1.23,-6.23,-3.02,160.27,0.26
5,-3.95,-5.28,49.27,0.87,1.45,1.23,-6.23,-3.02,160.27,0.26
6,-3.95,-5.28,49.27,0.52,2.53,0.99,-6.23,-3.02,160.27,0.26
7,-3.95,-5.28,49.27,0.52,2.53,0.99,-6.06,-4.73,160.49,-0.15
8,-1.76,-5.91,49.7,0.52,2.53,0.99,-6.06,-4.73,160.49,-0.15
9,-1.76,-5.91,49.7,0.24,2.76,1.2,-6.92,-4.73,160.49,-0.15
10,-1.76,-5.91,49.7,0.24,2.76,1.2,-6.92,-2.02,160.64,-0.26
11,-3.81,-5.7,49.84,-0.43,2.76,1.2,-6.92,-2.02,160.64,-0.26
12,-3.81,-5.7,49.84,-0.43,0.13,1.13,-6.54,-4.1,160.64,-0.26
13,-2.79,-5.7,49.84,-0.43,0.13,1.13,-6.54,-4.1,160.83,0.9
14,-2.79,-6.02,49.15,-0.49,0.46,1.13,-6.54,-4.1,160.83,0.9
15,-2.79,-6.02,49.15,-0.49,0.46,0.46,-6.87,-2.76,160.93,0.9
16,-3.77,-6.02,49.15,-0.49,0.46,0.46,-6.87,-2.76,160.93,-0.28
17,-3.77,-5.36,49.92,-0.07,1.27,0.46,-6.87,-2.76,160.93,-0.28
18,-3.77,-5.36,49.92,-0.07,1.27,0.94,-6.22,-3.72,161.1,-0.28
19,-0.2,-2.89,51.23,-0.07,1.27,0.94,-6.22,-3.72,161.1,-0.09
20,-0.2,-2.89,51.23,1.93,2.17,3.51,-6.22,-3.72,161.1,-0.09
21,-0.2,-2.89,51.23,1.93,2.17,3.51,-5.16,-0.31,161.44,-0.3
22,8.56,-37.96,51.23,1.93,2.17,3.51,-5.16,-0.31,161.44,-0.3
23,8.56,-37.96,99.99,-7.33,-3.5,0.72,-5.16,-0.31,161.44,-0.3
24,8.56,-37.96,99.99,-7.33,-3.5,0.72,-21.16,0.5,161.82,-0.3

0,-6.07,-6.15,49.29,1.44,2.11,1.62,-8.06,-4.17,177.68,-0.05
1,-6.07,-6.15,49.29,1.44,2.11,1.62,-7.15,-6.52,177.96,-0.05
2,-3.81,-7.05,49.29,1.44,2.11,1.62,-7.15,-6.52,177.96,0.61
3,-3.81,-7.05,48.07,0.26,2.5,0.91,-7.15,-6.52,177.96,0.61
4,-3.81,-7.05,48.07,0.26,2.5,0.91,-8.27,-4.47,178.08,-1.2
5,-4.47,-7.56,48.24,0.26,2.5,0.91,-8.27,-4.47,178.08,-1.2
6,-4.47,-7.56,48.24,0.68,0.62,-0.02,-8.58,-4.47,178.08,-1.2
7,-4.47,-7.56,48.24,0.68,0.62,-0.02,-8.58,-5.15,178.15,-0.66
8,-4.15,-7.85,49.23,0.68,0.62,-0.02,-8.58,-5.15,178.15,-0.66
9,-4.15,-7.85,49.23,0.53,1.45,0.62,-8.75,-5.15,178.15,-0.66
10,-4.15,-7.85,49.23,0.53,1.45,0.62,-8.75,-4.99,178.22,-0.42
11,-4.86,-7.63,48.91,0.02,1.45,0.62,-8.75,-4.99,178.22,-0.42
12,-4.86,-7.63,48.91,0.02,1.34,0.69,-8.59,-5.69,178.22,-0.42
13,-4.91,-7.63,48.91,0.02,1.34,0.69,-8.59,-5.69,178.38,0.04
14,-4.91,-7.44,49.48,-0.18,1.66,0.69,-8.59,-5.69,178.38,0.04
15,-4.91,-7.44,49.48,-0.18,1.66,0.64,-8.8,-5.18,178.48,0.04
16,-4.95,-7.28,49.48,-0.18,1.66,0.64,-8.8,-5.18,178.48,-0.24
17,-4.95,-7.28,49.71,0.06,1.17,0.69,-8.8,-5.18,178.48,-0.24
18,-4.95,-7.28,49.71,0.06,1.17,0.69,-8.44,-5.72,178.62,-0.13
19,-3.54,-5.62,49.09,0.06,1.17,0.69,-8.44,-5.72,178.62,-0.13
20,-3.54,-5.62,49.09,-0.02,2.49,2.08,-6.53,-5.72,178.62,-0.13
21,-3.54,-5.62,49.09,-0.02,2.49,2.08,-6.53,-3.6,178.82,-0.01
22,0.57,-20.43,71.05,-0.02,2.49,2.08,-6.53,-3.6,178.82,-0.01
23,0.57,-20.43,71.05,6.47,5.04,3.5,-14.0,-3.6,178.82,-0.01
24,7.38,-20.43,71.05,6.47,5.04,3.5,-14.0,2.46,179.29,-5.21

0,-6.3,-4.95,48.2,1.14,0.27,1.3,-5.49,-7.24,-168.65,-0.19
1,-6.3,-4.95,48.2,-0.98,0.61,1.42,-5.18,-7.24,-168.65,-0.19
2,-6.24,-4.95,48.2,-0.98,0.61,1.42,-5.18,-7.86,-168.41,-0.07
3,-6.24,-5.66,48.93,0.35,-0.01,1.42,-5.18,-7.86,-168.41,-0.07
4,-6.24,-5.66,48.93,0.35,-0.01,0.69,-6.51,-6.26,-168.3,-0.07
5,-6.42,-5.58,48.93,0.35,-0.01,0.69,-6.51,-6.26,-168.3,-0.9
6,-6.42,-5.58,48.08,-0.12,-0.3,1.09,-6.51,-6.26,-168.3,-0.9
7,-6.42,-5.58,48.08,-0.12,-0.3,1.09,-6.23,-8.5,-168.06,-0.27
8,-6.54,-5.75,48.8,-0.12,-0.3,1.09,-6.23,-8.5,-168.06,-0.27
9,-6.54,-5.75,48.8,-0.86,1.29,0.54,-6.38,-7.8,-168.06,-0.27
10,-6.54,-5.75,48.8,-0.86,1.29,0.54,-6.38,-7.8,-167.98,-0.05
11,-7.66,-5.03,48.33,0.04,1.29,0.54,-6.38,-7.8,-167.98,-0.05
12,-7.66,-5.03,48.33,0.04,1.62,0.95,-6.01,-8.7,-167.98,-0.05
13,-7.66,-5.03,48.33,0.04,1.62,0.95,-6.01,-8.7,-167.87,0.29
14,-5.67,-5.77,49.15,-0.47,1.62,0.95,-6.01,-8.7,-167.87,0.29
15,-5.67,-5.77,49.15,-0.47,1.07,0.75,-6.52,-6.53,-167.87,0.29
16,-6.67,-5.77,49.15,-0.47,1.07,0.75,-6.52,-6.53,-167.77,-0.91
17,-6.67,-5.07,48.48,-0.53,0.85,0.75,-6.52,-6.53,-167.77,-0.91
18,-6.67,-5.07,48.48,-0.53,0.85,1.33,-5.69,-8.12,-167.58,-0.91
19,-5.48,-5.07,48.48,-0.53,0.85,1.33,-5.69,-8.12,-167.58,-0.32
20,-5.48,-4.38,48.44,1.5,2.31,2.37,-5.69,-8.12,-167.58,-0.32
21,-5.48,-4.38,48.44,1.5,2.31,2.37,-4.47,-5.86,-167.28,-0.05
22,-4.55,-9.63,48.44,1.5,2.31,2.37,-4.47,-5.86,-167.28,-0.05
23,-4.55,-9.63,61.46,6.92,8.99,5.46,-4.47,-5.86,-167.28,-0.05
24,-4.55,-9.63,61.46,6.92,8.99,5.46,-7.48,-3.7,-166.63,-0.05

0,-4.22,-1.43,48.29,1.91,-1.73,0.29,0.5,-0.93,-155.16,-1.0
1,-4.22,-1.43,48.29,1.91,-1.73,-0.67,-1.64,-4.68,-155.24,-0.58
2,-3.75,-2.29,50.49,1.91,-1.73,-0.67,-1.64,-4.68,-155.24,-0.58
3,-3.75,-2.29,50.49,4.11,0.31,-0.82,-2.46,-4.68,-155.24,-0.58
4,-3.75,-2.29,50.49,4.11,0.31,-0.82,-2.46,-4.08,-155.34,-0.23
5,-3.44,-2.91,49.46,3.13,0.31,-0.82,-2.46,-4.08,-155.34,-0.23
6,-3.44,-2.91,49.46,3.13,3.36,0.35,-3.06,-4.08,-155.34,-0.23
7,-3.44,-2.91,49.46,3.13,3.36,0.35,-3.06,-4.5,-155.4,0.11
8,-5.09,-2.0,48.72,3.13,3.36,0.35,-3.06,-4.5,-155.4,0.11
9,-5.09,-2.0,48.72,1.94,1.22,0.5,-2.82,-4.5,-155.4,0.11
10,-5.09,-2.0,48.72,1.94,1.22,0.5,-2.82,-5.23,-155.22,0.45
11,-3.32,-3.33,49.73,1.6,1.22,0.5,-2.82,-5.23,-155.22,0.45
12,-3.32,-3.33,49.73,1.6,1.57,1.25,-3.68,-4.97,-155.22,0.45
13,-3.35,-3.12,49.73,1.6,1.57,1.25,-3.68,-4.97,-155.16,-0.07
14,-3.35,-3.12,49.58,0.39,0.76,0.33,-3.68,-4.97,-155.16,-0.07
15,-3.35,-3.12,49.58,0.39,0.76,0.33,-3.55,-4.12,-155.07,-0.28
16,-3.78,-2.41,48.19,0.39,0.76,0.33,-3.55,-4.12,-155.07,-0.28
17,-3.78,-2.41,48.19,0.74,-0.3,0.88,-2.73,-5.72,-155.07,-0.28
18,-3.78,-2.41,48.19,0.74,-0.3,0.88,-2.73,-5.72,-154.98,-0.12
19,-2.62,0.21,48.57,4.78,-0.3,0.88,-2.73,-5.72,-154.98,-0.12
20,-2.62,0.21,48.57,4.78,8.79,2.47,0.46,-2.46,-154.98,-0.12
21,-2.76,0.21,48.57,4.78,8.79,2.47,0.46,-2.46,-154.75,-0.42
22,-2.76,-29.3,99.99,9.48,2.84,2.47,0.46,-2.46,-154.75,-0.42
23,-2.76,-29.3,99.99,9.48,2.84,-2.46,-13.83,1.2,-154.47,-0.42
24,-13.72,-45.99,99.99,9.48,2.84,-2.46,-13.83,1.2,-154.47,8.03

0,1.06,-1.88,53.27,4.97,2.36,-6.47,2.35,37.23,-155.95,-8.08
1,1.06,-1.88,53.27,4.97,2.36,0.68,-1.28,-1.78,-155.87,-8.08
2,3.17,-3.03,53.27,4.97,2.36,0.68,-1.28,-1.78,-155.87,-0.29
3,3.17,-3.03,51.67,2.35,2.74,-3.27,-1.28,-1.78,-155.87,-0.29
4,3.17,-3.03,51.67,2.35,2.74,-3.27,-3.41,3.75,-156.25,0.05
5,1.96,-3.83,49.29,2.35,2.74,-3.27,-3.41,3.75,-156.25,0.05
6,1.96,-3.83,49.29,-0.59,0.43,-1.83,-3.41,3.75,-156.25,0.05
7,1.96,-3.83,49.29,-0.59,0.43,-1.83,-4.26,1.83,-156.6,-0.74
8,-1.49,-3.11,49.43,-0.21,0.43,-1.83,-4.26,1.83,-156.6,-0.74
9,-1.49,-3.11,49.43,-0.21,1.12,-1.38,-3.44,-0.72,-156.6,-0.74
10,0.96,-3.11,49.43,-0.21,1.12,-1.38,-3.44,-0.72,-156.77,1.03
11,0.96,-3.7,50.31,-1.05,0.56,-1.38,-3.44,-0.72,-156.77,1.03
12,0.96,-3.7,50.31,-1.05,0.56,-1.19,-4.0,1.67,-157.1,1.03
13,0.59,-3.11,50.31,-1.05,0.56,-1.19,-4.0,1.67,-157.1,0.05
14,0.59,-3.11,49.34,-0.02,-0.38,-0.67,-4.0,1.67,-157.1,0.05
15,0.59,-3.11,49.34,-0.02,-0.38,-0.67,-3.53,-0.67,-157.24,-0.09
16,0.43,-3.4,49.34,-0.02,-0.38,-0.67,-3.53,-0.67,-157.24,-0.09
17,0.43,-3.4,50.25,2.61,2.06,-0.78,-3.53,-0.67,-157.24,-0.09
18,0.43,-3.4,50.25,2.61,2.06,-0.78,-3.89,-0.54,-157.36,-0.09
19,-0.21,-3.28,49.85,2.61,2.06,-0.78,-3.89,-0.54,-157.36,0.52
20,-0.21,-3.28,49.85,4.92,3.19,-1.36,-3.87,-0.54,-157.36,0.52
21,-0.21,-3.28,49.85,4.92,3.19,-1.36,-3.87,0.01,-157.52,0.3
22,0.03,-0.04,49.33,8.82,3.19,-1.36,-3.87,0.01,-157.52,0.3
23,0.03,-0.04,49.33,8.82,7.89,1.6,0.22,1.0,-157.52,0.3
24,5.13,-0.04,49.33,8.82,7.89,1.6,0.22,1.0,-157.46,0.22

0,-0.65,4.13,41.6,-2.4,1.67,0.88,5.5,1.22,-163.8,0.22
1,2.7,4.13,41.6,-2.4,1.67,0.88,5.5,1.22,-163.69,0.92
2,2.7,2.73,47.86,3.29,0.42,0.88,5.5,1.22,-163.69,0.92
3,2.7,2.73,47.86,3.29,0.42,1.43,3.42,2.11,-163.69,0.92
4,1.21,1.45,47.86,3.29,0.42,1.43,3.42,2.11,-163.57,0.4
5,1.21,1.45,50.43,6.83,4.23,1.43,3.42,2.11,-163.57,0.4
6,1.21,1.45,50.43,6.83,4.23,2.07,1.88,2.7,-163.24,0.4
7,3.86,1.9,50.43,6.83,4.23,2.07,1.88,2.7,-163.24,0.97
8,3.86,1.9,49.49,1.31,-1.06,2.47,1.88,2.7,-163.24,0.97
9,3.86,1.9,49.49,1.31,-1.06,2.47,2.31,4.08,-163.0,0.18
10,2.53,1.79,49.84,1.31,-1.06,2.47,2.31,4.08,-163.0,0.18
11,2.53,1.79,49.84,1.38,1.26,0.8,1.65,4.08,-163.0,0.18
12,2.53,1.79,49.84,1.38,1.26,0.8,1.65,3.49,-162.65,-0.21
13,3.2,0.84,48.65,1.38,1.26,0.8,1.65,3.49,-162.65,-0.21
14,3.2,0.84,48.65,2.46,2.13,2.41,1.31,3.49,-162.65,-0.21
15,3.2,0.84,48.65,2.46,2.13,2.41,1.31,1.83,-162.39,0.08
16,0.91,1.01,49.9,3.41,2.13,2.41,1.31,1.83,-162.39,0.08
17,0.91,1.01,49.9,3.41,3.6,0.57,0.48,2.34,-162.39,0.08
18,3.45,1.01,49.9,3.41,3.6,0.57,0.48,2.34,-162.11,0.03
19,3.45,-0.32,49.45,1.13,3.6,0.57,0.48,2.34,-162.11,0.03
20,3.45,-0.32,49.45,1.13,1.06,1.62,-0.48,3.58,-162.11,0.03
21,3.39,-0.32,49.45,1.13,1.06,1.62,-0.48,3.58,-161.98,0.05
22,3.39,-0.22,49.48,2.12,1.93,1.62,-0.48,3.58,-161.98,0.05
23,3.39,-0.22,49.48,2.12,1.93,0.1,-0.08,5.34,-161.82,0.05
24,0.09,-8.04,49.48,2.12,1.93,0.1,-0.08,5.34,-161.82,0.09

0,-1.38,-2.48,49.87,2.71,0.87,1.11,-1.35,-1.87,-148.82,0.74
1,-1.38,-2.48,49.87,2.71,0.87,0.78,-2.5,-1.38,-148.68,0.74
2,-2.0,-1.7,49.87,2.71,0.87,0.78,-2.5,-1.38,-148.68,0.04
3,-2.0,-1.7,49.6,1.0,1.06,0.68,-2.5,-1.38,-148.68,0.04
4,-2.0,-1.7,49.6,1.0,1.06,0.68,-2.21,-1.76,-148.54,0.04
5,-1.34,-2.59,49.6,1.0,1.06,0.68,-2.21,-1.76,-148.54,-0.27
6,-1.34,-2.59,50.25,1.96,2.24,0.29,-2.21,-1.76,-148.54,-0.27
7,-1.34,-2.59,50.25,1.96,2.24,0.29,-2.97,-1.31,-148.41,-0.12
8,-1.74,-2.66,49.91,1.96,2.24,0.29,-2.97,-1.31,-148.41,-0.12
9,-1.74,-2.66,49.91,1.61,0.27,1.29,-3.16,-1.31,-148.41,-0.12
10,-1.14,-2.66,49.91,1.61,0.27,1.29,-3.16,-2.36,-148.27,0.4
11,-1.14,-3.73,50.26,1.61,0.27,1.29,-3.16,-2.36,-148.27,0.4
12,-1.14,-3.73,50.26,0.96,1.03,0.73,-4.07,-2.36,-148.27,0.4
13,-1.77,-3.73,50.26,0.96,1.03,0.73,-4.07,-0.26,-148.1,-0.95
14,-1.77,-3.02,49.51,0.13,1.03,0.73,-4.07,-0.26,-148.1,-0.95
15,-1.77,-3.02,49.51,0.13,1.24,0.67,-3.44,-2.27,-148.1,-0.95
16,-0.6,-3.02,49.51,0.13,1.24,0.67,-3.44,-2.27,-147.94,-0.29
17,-0.6,-3.14,49.38,-0.05,1.58,0.67,-3.44,-2.27,-147.94,-0.29
18,-0.6,-3.14,49.38,-0.05,1.58,1.45,-3.5,-0.75,-147.83,-0.29
19,4.61,-10.75,49.38,-0.05,1.58,1.45,-3.5,-0.75,-147.83,0.91
20,4.61,-10.75,54.83,5.5,1.01,1.45,-3.5,-0.75,-147.83,0.91
21,4.61,-10.75,54.83,5.5,1.01,2.61,-8.55,5.63,-147.4,0.91
22,-0.4,-41.06,99.99,5.5,1.01,2.61,-8.55,5.63,-147.4,-5.32
23,-0.4,-41.06,99.99,-13.01,-5.3,-3.23,-20.31,5.63,-147.4,-5.32
24,-30.05,-41.06,99.99,-13.01,-5.3,-3.23,-20.31,-1.34,-147.3,-0.01

0,-6.05,-2.46,49.14,9.79,5.74,2.08,-1.16,-11.58,-126.1,1.55
1,-6.05,-2.46,49.14,2.87,1.71,2.06,-2.86,-11.58,-126.1,1.55
2,-9.3,-2.46,49.14,2.87,1.71,2.06,-2.86,-9.03,-126.04,-0.04
3,-9.3,-2.03,48.89,1.43,1.07,2.06,-2.86,-9.03,-126.04,-0.04
4,-9.3,-2.03,48.89,1.43,1.07,-0.12,-2.51,-10.71,-125.81,-0.04
5,-8.84,-2.52,48.89,1.43,1.07,-0.12,-2.51,-10.71,-125.81,-0.06
6,-8.84,-2.52,48.89,0.66,1.88,-0.65,-2.51,-10.71,-125.81,-0.06
7,-8.84,-2.52,48.89,0.66,1.88,-0.65,-2.84,-8.87,-125.88,-0.25
8,-9.84,-2.52,48.89,0.66,1.88,-0.65,-2.84,-8.87,-125.88,-0.25
9,-9.84,-2.02,48.65,0.76,1.17,-0.65,-2.84,-8.87,-125.88,-0.25
10,-9.84,-2.02,48.65,0.76,1.17,-0.04,-2.39,-11.19,-125.9,-0.25
11,-9.05,-2.59,48.65,0.76,1.17,-0.04,-2.39,-11.19,-125.9,0.5
12,-9.05,-2.59,49.26,0.74,0.62,-0.42,-2.39,-11.19,-125.9,0.5
13,-9.05,-2.59,49.26,0.74,0.62,-0.42,-2.82,-11.52,-126.02,0.63
14,-8.7,-1.99,48.3,0.01,0.62,-0.42,-2.82,-11.52,-126.02,0.63
15,-8.7,-1.99,48.3,0.01,2.44,-1.16,-2.68,-9.87,-126.02,0.63
16,-9.6,-1.85,48.3,0.01,2.44,-1.16,-2.68,-9.87,-126.14,-0.32
17,-9.6,-1.85,47.85,0.64,2.97,-1.16,-2.68,-9.87,-126.14,-0.32
18,-9.6,-1.85,47.85,0.64,2.97,-1.14,-1.94,-11.41,-126.27,-0.32
19,-5.95,-1.16,48.06,0.64,2.97,-1.14,-1.94,-11.41,-126.27,2.01
20,-5.95,-1.16,48.06,0.33,3.98,-1.24,-1.94,-11.41,-126.27,2.01
21,-5.95,-1.16,48.06,0.33,3.98,-1.24,-1.45,-8.09,-126.61,0.23
22,-0.91,-5.11,65.13,0.33,3.98,-1.24,-1.45,-8.09,-126.61,0.23
23,-0.91,-5.11,65.13,6.07,3.14,6.26,-5.73,-8.09,-126.61,0.23
24,0.38,-5.11,65.13,6.07,3.14,6.26,-5.73,-2.72,-126.19,-0.03

0,-10.72,-2.41,50.21,3.96,-3.61,1.24,-3.03,-10.27,-108.71,-0.12
1,-10.72,-2.41,50.21,3.96,-1.04,0.01,-2.81,-11.99,-108.71,-0.12
2,-7.91,-2.41,50.21,3.96,-1.04,0.01,-2.81,-11.99,-108.63,-0.04
3,-7.91,-2.57,48.61,1.72,1.9,0.01,-2.81,-11.99,-108.63,-0.04
4,-7.91,-2.57,48.61,1.72,1.9,-0.25,-3.05,-11.0,-108.71,-0.04
5,-9.27,-2.57,48.61,1.72,1.9,-0.25,-3.05,-11.0,-108.71,0.19
6,-9.27,-3.07,49.28,1.94,0.63,-0.25,-3.05,-11.0,-108.71,0.19
7,-9.27,-3.07,49.28,1.94,0.63,-1.4,-3.58,-10.51,-108.89,0.19
8,-9.36,-3.01,49.28,1.94,0.63,-1.4,-3.58,-10.51,-108.89,0.15
9,-9.36,-3.01,48.45,1.87,1.88,0.6,-3.58,-10.51,-108.89,0.15
10,-9.36,-3.01,48.45,1.87,1.88,0.6,-3.61,-11.08,-108.95,-0.13
11,-9.22,-3.69,48.72,1.87,1.88,0.6,-3.61,-11.08,-108.95,-0.13
12,-9.22,-3.69,48.72,1.32,2.87,0.73,-4.29,-11.08,-108.95,-0.13
13,-9.56,-3.69,48.72,1.32,2.87,0.73,-4.29,-10.24,-108.82,-0.17
14,-9.56,-3.91,49.15,0.98,2.87,0.73,-4.29,-10.24,-108.82,-0.17
15,-9.56,-3.91,49.15,0.98,1.67,0.23,-4.37,-11.11,-108.82,-0.17
16,-8.19,-3.91,49.15,0.98,1.67,0.23,-4.37,-11.11,-108.73,-0.32
17,-8.19,-3.93,48.79,0.55,1.67,0.23,-4.37,-11.11,-108.73,-0.32
18,-8.19,-3.93,48.79,0.55,1.7,-0.11,-4.48,-9.98,-108.73,-0.32
19,-8.6,-3.93,48.79,0.55,1.7,-0.11,-4.48,-9.98,-108.8,-0.12
20,-8.6,-1.45,48.35,2.44,3.4,-0.11,-4.48,-9.98,-108.8,-0.12
21,-8.6,-1.45,48.35,2.44,3.4,0.14,-1.77,-8.04,-108.78,-0.12
22,-2.84,-20.54,48.35,2.44,3.4,0.14,-1.77,-8.04,-108.78,-1.81
23,-2.84,-20.54,91.86,9.52,13.93,0.14,-1.77,-8.04,-108.78,-1.81
24,-2.84,-20.54,91.86,9.52,13.93,1.09,-11.06,-2.74,-108.78,-1.81

0,0.0,0.0,0.0,0.0,0.0,0.0,0.0,0.0,0.0,0.0
1,-4.13,0.0,0.0,0.0,0.0,0.0,0.0,0.0,0.0,0.0
2,-4.13,5.16,48.59,-0.41,1.42,0.0,0.0,0.0,0.0,0.0
3,-4.13,5.16,48.59,-0.41,1.42,1.54,6.07,-5.75,12.63,-0.29
4,-4.61,5.19,48.59,-0.41,1.42,1.54,6.07,-5.75,12.63,-0.29
5,-4.61,5.19,48.97,-0.37,2.35,1.54,5.93,-5.33,12.63,-0.29
6,-4.01,5.19,48.97,-0.37,2.35,1.2,5.93,-5.33,12.63,-0.34
7,-4.01,4.83,48.8,0.16,2.35,1.2,5.93,-5.33,12.63,-0.34
8,-4.01,4.83,48.8,0.16,1.3,1.24,5.77,-5.11,12.63,-0.34
9,-4.14,4.83,48.8,0.16,1.3,1.24,5.77,-5.11,12.63,-0.47
10,-4.14,4.68,49.11,0.32,1.3,1.24,5.6,-5.11,12.63,-0.47
11,-4.14,4.68,49.11,0.32,1.3,0.89,5.6,-5.07,13.2,-0.47
12,-4.43,4.68,49.11,0.32,1.3,0.89,5.6,-5.07,13.2,-0.47
13,-4.43,4.91,48.25,0.3,0.89,0.89,5.6,-5.07,13.2,-0.47
14,-4.43,4.91,48.25,0.3,0.89,1.4,5.71,-5.34,13.2,-0.47
15,-4.35,4.91,48.25,0.3,0.89,1.4,5.71,-5.34,13.2,-0.09
16,-4.35,4.44,49.15,0.75,1.62,1.4,5.71,-5.34,13.2,-0.09
17,-4.35,4.44,49.15,0.75,1.62,0.89,5.28,-4.83,13.2,-0.25
18,-4.48,4.44,49.15,0.75,1.62,0.89,5.28,-4.83,13.2,-0.25
19,-4.48,4.68,48.15,0.27,-0.52,0.89,5.28,-4.83,13.2,-0.25
20,-4.48,4.68,48.15,0.27,-0.52,1.57,5.37,-4.83,13.78,-0.25
21,-4.96,4.68,48.15,0.27,-0.52,1.57,5.37,-4.83,13.78,-0.02
22,-4.96,4.04,48.38,2.83,2.77,1.57,5.37,-4.83,13.78,-0.02
23,-4.96,4.04,48.38,2.83,2.77,0.99,4.98,-5.16,13.78,0.42
24,-3.59,5.71,48.38,2.83,2.77,0.99,4.98,-5.16,13.78,0.42

0,-4.57,-1.5,49.47,1.95,-2.2,4.45,-2.89,0.1,14.26,-0.55
1,-4.57,-1.5,49.47,1.95,-2.2,5.86,-1.96,0.1,19.19,-0.1
2,-4.35,-1.5,49.47,1.95,-2.2,5.86,-1.96,0.1,19.19,-0.1
3,-4.35,-2.88,49.89,0.49,1.27,5.86,-3.29,0.1,19.19,-0.1
4,-5.21,-2.88,49.89,0.49,1.27,1.96,-3.29,0.1,19.65,-0.04
5,-5.21,-2.65,49.95,0.49,1.27,1.96,-3.29,0.1,19.65,-0.04
6,-5.21,-2.65,49.95,-0.09,2.49,1.45,-2.86,0.1,19.65,-0.04
7,-5.21,-2.65,49.95,-0.09,2.49,1.45,-2.86,-5.32,20.03,-0.21
8,-2.73,-1.9,49.15,-0.09,2.49,1.45,-2.86,-5.32,20.03,-0.21
9,-2.73,-1.9,49.15,-1.07,2.36,1.45,-2.61,-5.32,20.18,-0.21
10,-3.63,-1.9,49.15,-1.07,2.36,1.95,-2.61,-5.32,20.18,0.16
11,-3.63,-2.33,49.15,-1.07,2.36,1.95,-2.61,-5.32,20.18,0.16
12,-3.63,-2.33,49.3,-1.11,2.24,1.95,-2.53,-5.32,20.18,0.16
13,-2.56,-2.33,49.3,-1.11,2.24,0.86,-2.53,-3.23,20.18,-0.09
14,-2.56,-2.5,49.98,0.63,0.77,0.86,-2.53,-3.23,20.18,-0.09
15,-2.56,-2.5,49.98,0.63,0.77,1.19,-2.46,-3.23,20.61,-0.75
16,-3.6,-2.5,49.98,0.63,0.77,1.19,-2.46,-3.23,20.61,-0.75
17,-3.6,-2.45,48.7,-0.15,0.47,1.19,-2.46,-3.23,20.61,-0.75
18,-4.13,-2.45,48.7,-0.15,0.47,1.15,-2.8,-3.65,20.61,0.38
19,-4.13,-2.16,49.36,-0.15,0.47,1.15,-2.8,-3.65,20.61,0.38
20,-4.13,-2.16,49.36,0.19,0.67,1.15,-2.69,-4.02,20.61,0.38
21,-0.92,-2.16,49.36,0.19,0.67,1.58,-2.69,-4.02,20.61,-0.02
22,-0.92,0.51,47.77,0.19,0.67,1.58,-2.69,-4.02,20.61,-0.02
23,-0.92,0.51,47.77,3.81,3.82,1.58,0.52,-4.02,21.53,-0.02
24,-1.43,0.51,47.77,3.81,3.82,3.74,0.52,-4.02,21.53,0.22

0,-1.58,-7.61,52.14,0.97,-5.57,7.26,-9.02,6.25,18.59,1.15
1,-1.58,-7.61,52.14,0.97,-5.57,9.61,-8.84,3.83,18.59,1.15
2,0.2,-7.14,52.14,0.97,-5.57,9.61,-8.84,3.83,18.22,-0.21
3,0.2,-7.14,47.91,-9.7,8.0,9.61,-8.28,3.83,18.22,-0.21
4,0.2,-7.14,47.91,-9.7,8.0,3.28,-8.28,4.22,18.22,0.04
5,1.5,-8.85,47.91,-9.7,8.0,3.28,-8.28,4.22,18.22,0.04
6,1.5,-8.85,50.68,5.85,3.41,3.28,-7.7,4.22,18.22,0.04
7,1.15,-8.85,50.68,5.85,3.41,-1.72,-7.7,5.59,18.22,0.63
8,1.15,-6.93,50.68,5.85,3.41,-1.72,-7.7,5.59,18.22,0.63
9,1.15,-6.93,48.79,9.28,0.59,-1.72,-8.26,5.59,18.22,0.63
10,3.27,-6.93,48.79,9.28,0.59,0.32,-8.26,2.97,18.22,1.45
11,3.27,-8.4,50.27,9.28,0.59,0.32,-8.26,2.97,18.22,1.45
12,3.27,-8.4,50.27,5.76,-0.64,0.32,-9.46,1.64,18.22,1.45
13,1.21,-8.4,50.27,5.76,-0.64,2.05,-9.46,1.64,18.22,-0.22
14,1.21,-9.55,50.99,5.15,-0.64,2.05,-9.46,1.64,18.22,-0.22
15,1.21,-9.55,50.99,5.15,0.74,-0.06,-10.63,2.25,18.22,-0.22
16,2.14,-9.55,50.99,5.15,0.74,-0.06,-10.63,2.25,18.22,-0.2
17,2.14,-9.87,46.89,-2.27,1.36,-0.06,-10.63,2.25,18.22,-0.2
18,2.14,-9.87,46.89,-2.27,1.36,0.59,-11.38,2.7,18.22,-0.01
19,2.56,-9.87,46.89,-2.27,1.36,0.59,-11.38,2.7,18.22,-0.01
20,2.56,-8.08,49.78,0.19,3.45,0.59,-11.38,2.7,18.22,-0.01
21,2.56,-8.08,49.78,0.19,3.45,-0.52,-9.5,2.32,18.22,-0.64
22,4.77,-6.8,49.78,0.19,3.45,-0.52,-9.5,2.32,18.22,-0.64
23,4.77,-6.8,52.37,2.05,5.11,-2.08,-9.5,2.32,18.22,-0.64
24,4.77,-6.8,52.37,2.05,5.11,-2.08,-7.44,4.84,19.22,-1.17

0,1.51,-2.33,50.2,2.88,0.54,0.27,-2.62,-3.05,20.95,0.68
1,-0.81,-2.33,50.2,2.88,0.54,-1.37,-2.62,-3.05,20.87,0.24
2,-0.81,-2.45,49.15,2.88,0.54,-1.37,-2.62,-3.05,20.87,0.24
3,-0.81,-2.45,49.15,2.21,-0.21,-1.37,-3.04,-0.31,20.87,0.24
4,1.43,-2.45,49.15,2.21,-0.21,0.61,-3.04,-0.31,20.87,-0.37
5,1.43,-3.28,49.43,3.22,-0.21,0.61,-3.04,-0.31,20.87,-0.37
6,1.43,-3.28,49.43,3.22,0.27,1.7,-3.49,-1.12,20.87,-0.37
7,-1.55,-3.28,49.43,3.22,0.27,1.7,-3.49,-1.12,20.87,-0.09
8,-1.55,-3.78,50.13,1.39,0.27,1.7,-3.49,-1.12,20.87,-0.09
9,-1.55,-3.78,50.13,1.39,1.98,0.6,-4.17,-1.14,20.87,-0.09
10,-0.4,-3.78,50.13,1.39,1.98,0.6,-4.17,-1.14,20.87,-0.18
11,-0.4,-4.1,50.8,1.3,1.42,0.6,-4.17,-1.14,20.87,-0.18
12,-0.4,-4.1,50.8,1.3,1.42,0.86,-4.52,-0.76,20.87,-0.32
13,-1.67,-3.93,50.8,1.3,1.42,0.86,-4.52,-0.76,20.87,-0.32
14,-1.67,-3.93,47.47,0.41,0.04,0.86,-4.52,-0.76,20.87,-0.32
15,-1.67,-3.93,47.47,0.41,0.04,1.05,-4.44,-1.08,21.46,-0.32
16,-1.01,-4.09,47.47,0.41,0.04,1.05,-4.44,-1.08,21.46,-0.18
17,-1.01,-4.09,49.84,1.01,2.12,1.05,-4.56,-0.79,21.46,-0.18
18,0.77,-4.09,49.84,1.01,2.12,1.68,-4.56,-0.79,21.46,-0.15
19,0.77,-2.8,49.62,1.01,2.12,1.68,-4.56,-0.79,21.46,-0.15
20,0.77,-2.8,49.62,2.89,2.04,1.68,-3.53,2.06,21.46,-0.15
21,4.4,-2.8,49.62,2.89,2.04,2.19,-3.53,2.06,21.46,1.32
22,4.4,-6.28,52.15,2.89,2.04,2.19,-3.53,2.06,21.46,1.32
23,4.4,-6.28,52.15,6.03,-1.28,2.19,-5.89,2.06,22.57,1.32
24,5.23,-6.28,52.15,6.03,-1.28,5.97,-5.89,2.06,22.57,0.19

0,-5.44,-1.2,50.58,1.08,1.78,0.23,-1.6,-5.64,29.48,-1.05
1,-5.44,-1.2,50.58,0.88,2.42,0.23,-0.96,-4.96,29.48,-1.05
2,-4.58,-1.2,50.58,0.88,2.42,0.21,-0.96,-4.96,29.48,1.05
3,-4.58,-1.39,49.63,0.87,2.42,0.21,-0.96,-4.96,29.48,1.05
4,-4.58,-1.39,49.63,0.87,1.62,0.31,-1.54,-5.11,29.48,1.05
5,-4.82,-1.39,49.63,0.87,1.62,0.31,-1.54,-5.11,29.48,-1.13
6,-4.82,-0.73,48.86,-1.22,-0.18,0.31,-1.54,-5.11,29.48,-1.13
7,-4.82,-0.73,48.86,-1.22,-0.18,0.77,-1.47,-5.28,29.48,-0.46
8,-6.66,-1.36,48.86,-1.22,-0.18,0.77,-1.47,-5.28,29.48,-0.46
9,-6.66,-1.36,48.86,0.63,1.14,0.4,-1.47,-5.28,29.48,-0.46
10,-6.66,-1.36,48.86,0.63,1.14,0.4,-1.49,-5.23,29.64,0.04
11,-4.67,-1.68,49.12,0.63,1.14,0.4,-1.49,-5.23,29.64,0.04
12,-4.67,-1.68,49.12,-0.24,1.97,0.4,-1.87,-5.23,29.64,0.04
13,-4.56,-1.68,49.12,-0.24,1.97,0.52,-1.87,-5.23,29.71,-0.08
14,-4.56,-2.02,50.33,-0.24,1.97,0.52,-1.87,-5.23,29.71,-0.08
15,-4.56,-2.02,50.33,0.23,2.4,0.52,-2.11,-5.23,29.78,-0.08
16,-4.74,-2.02,50.33,0.23,2.4,0.22,-2.11,-5.23,29.78,-0.31
17,-4.74,-1.58,49.37,0.45,2.4,0.22,-2.11,-5.23,29.78,-0.31
18,-4.74,-1.58,49.37,0.45,1.56,-0.14,-1.97,-5.07,29.78,-0.31
19,-4.75,-1.58,49.37,0.45,1.56,-0.14,-1.97,-5.07,29.78,0.5
20,-4.75,2.09,49.01,3.75,1.56,-0.14,-1.97,-5.07,29.78,0.5
21,-4.75,2.09,49.01,3.75,8.57,1.28,1.69,-5.47,29.78,0.5
22,-9.32,2.09,49.01,3.75,8.57,1.28,1.69,-5.47,29.78,0.27
23,-9.32,-14.35,99.14,13.84,28.64,1.28,1.69,-5.47,29.78,0.27
24,-9.32,-14.35,99.14,13.84,28.64,-0.59,-6.02,0.5,29.78,-0.15

0,-3.65,-7.28,51.25,1.68,-0.8,-1.63,-8.55,-2.01,20.3,-0.25
1,-3.65,-7.28,51.25,1.68,0.75,1.24,-8.46,-3.27,20.3,-0.25
2,-3.02,-7.28,51.25,1.68,0.75,1.24,-8.46,-3.27,20.3,-0.28
3,-3.02,-7.38,50.26,-1.64,-0.07,1.24,-8.46,-3.27,20.3,-0.28
4,-3.02,-7.38,50.26,-1.64,-0.07,0.7,-8.62,-3.89,20.3,-0.28
5,-4.26,-6.16,50.26,-1.64,-0.07,0.7,-8.62,-3.89,20.3,-0.32
6,-4.26,-6.16,48.91,-2.91,2.44,0.7,-7.08,-3.89,20.3,-0.32
7,-4.26,-6.16,48.91,-2.91,2.44,-0.05,-7.08,-3.89,20.2,0.21
8,-1.83,-6.75,48.91,-2.91,2.44,-0.05,-7.08,-3.89,20.2,0.21
9,-1.83,-6.75,50.38,0.09,2.57,1.12,-7.08,-3.89,20.2,0.21
10,-1.83,-6.75,50.38,0.09,2.57,1.12,-7.66,-2.88,20.26,-0.3
11,-3.9,-6.04,48.24,0.09,2.57,1.12,-7.66,-2.88,20.26,-0.3
12,-3.9,-6.04,48.24,0.01,2.04,1.12,-7.16,-2.88,20.46,-0.3
13,-3.9,-6.04,48.24,0.01,2.04,0.94,-7.16,-2.88,20.46,0.18
14,-2.84,-6.81,49.44,0.04,2.04,0.94,-7.16,-2.88,20.46,0.18
15,-2.84,-6.81,49.44,0.04,2.91,1.73,-7.58,-3.28,20.46,-0.14
16,-1.75,-6.81,49.44,0.04,2.91,1.73,-7.58,-3.28,20.46,-0.14
17,-1.75,-5.61,49.36,-0.77,2.73,1.73,-7.58,-3.28,20.46,-0.14
18,-1.75,-5.61,49.36,-0.77,2.73,1.9,-6.73,-2.47,20.46,-0.14
19,0.06,-4.41,49.36,-0.77,2.73,1.9,-6.73,-2.47,20.46,-0.32
20,0.06,-4.41,49.92,3.77,4.75,1.9,-6.73,-2.47,20.46,-0.32
21,0.06,-4.41,49.92,3.77,4.75,4.51,-5.09,0.3,20.46,-0.26
22,-5.88,-47.61,49.92,3.77,4.75,4.51,-5.09,0.3,20.46,-0.26
23,-5.88,-47.61,99.99,12.44,10.81,4.51,-22.33,0.3,20.46,-0.26
24,-19.0,-47.61,99.99,12.44,10.81,7.01,-22.33,-0.43,20.46,-0.14

0,-2.94,2.91,49.02,-2.88,3.7,1.91,0.4,-5.69,30.88,-3.51
1,-2.94,2.91,49.02,-2.88,2.51,0.63,3.38,-4.07,30.88,-3.51
2,-3.26,2.44,49.02,-2.88,2.51,0.63,3.38,-4.07,30.88,-0.04
3,-3.26,2.44,49.42,5.35,-1.8,0.63,3.38,-4.07,30.88,-0.04
4,-3.26,2.44,49.42,5.35,-1.8,-0.24,2.78,-4.87,30.88,-0.27
5,-2.3,0.7,49.42,5.35,-1.8,-0.24,2.78,-4.87,30.88,-0.27
6,-2.3,0.7,49.94,1.95,3.01,0.24,2.78,-4.87,30.88,-0.27
7,-2.3,0.7,49.94,1.95,3.01,0.24,1.39,-2.99,31.21,-0.96
8,-4.86,1.01,49.94,1.95,3.01,0.24,1.39,-2.99,31.21,-0.96
9,-4.86,1.01,49.88,4.64,1.23,0.24,1.33,-2.99,31.21,-0.96
10,-4.36,1.01,49.88,4.64,1.23,-0.01,1.33,-4.19,31.21,1.14
11,-4.36,0.17,50.54,4.64,1.23,-0.01,1.33,-4.19,31.21,1.14
12,-4.36,0.17,50.54,1.53,3.08,-0.01,0.45,-4.04,31.21,1.14
13,-2.24,0.17,50.54,1.53,3.08,0.01,0.45,-4.04,31.21,-0.16
14,-2.24,0.03,49.66,1.53,3.08,0.01,0.45,-4.04,31.21,-0.16
15,-2.24,0.03,49.66,1.05,1.57,0.01,0.24,-3.42,31.21,-0.16
16,-2.08,0.03,49.66,1.05,1.57,1.3,0.24,-3.42,31.21,-0.01
17,-2.08,-0.17,49.3,0.66,1.47,1.3,0.24,-3.42,31.21,-0.01
18,-2.08,-0.17,49.3,0.66,1.47,0.0,-0.1,-2.92,31.21,-0.01
19,-4.79,-0.17,49.3,0.66,1.47,0.0,-0.1,-2.92,31.21,-0.35
20,-4.79,1.57,48.7,0.84,1.14,0.0,-0.1,-2.92,31.21,-0.35
21,-4.79,1.57,48.7,0.84,1.14,-0.05,1.65,-2.71,31.21,1.36
22,-1.76,-1.47,48.7,0.84,1.14,-0.05,1.65,-2.71,31.21,1.36
23,-1.76,-1.47,53.48,7.76,4.1,-0.05,-1.19,-2.71,31.21,1.36
24,-1.76,-1.47,53.48,7.76,4.1,1.77,-1.19,-2.71,31.72,-0.32

0,-5.2,-2.29,48.66,-0.21,-0.12,0.98,-2.69,-4.96,35.51,-0.14
1,-5.2,-2.29,48.66,-0.21,-0.12,0.98,-2.68,-5.98,36.03,-0.14
2,-5.03,-2.07,48.66,-0.21,-0.12,0.98,-2.68,-5.98,36.03,-0.5
3,-5.03,-2.07,51.06,1.49,-0.16,0.98,-2.33,-5.98,36.03,-0.5
4,-3.85,-2.07,51.06,1.49,-0.16,0.92,-2.33,-5.43,36.03,-0.19
5,-3.85,-1.07,49.97,1.49,-0.16,0.92,-2.33,-5.43,36.03,-0.19
6,-3.85,-1.07,49.97,-0.72,-0.83,0.92,-1.94,-6.83,36.03,-0.19
7,-5.86,-1.07,49.97,-0.72,-0.83,2.06,-1.94,-6.83,36.03,-0.56
8,-5.86,-2.19,49.58,0.53,-0.83,2.06,-1.94,-6.83,36.03,-0.56
9,-5.86,-2.19,49.58,0.53,2.38,0.83,-2.21,-5.84,36.03,-0.56
10,-4.21,-2.5,49.58,0.53,2.38,0.83,-2.21,-5.84,36.03,0.7
11,-4.21,-2.5,48.79,-0.26,2.29,0.83,-2.21,-5.84,36.03,0.7
12,-4.21,-2.5,48.79,-0.26,2.29,0.85,-2.76,-4.59,36.03,-0.0
13,-5.98,-2.67,48.79,-0.26,2.29,0.85,-2.76,-4.59,36.03,-0.0
14,-5.98,-2.67,49.19,0.71,2.08,0.85,-2.95,-4.59,36.03,-0.0
15,-4.52,-2.67,49.19,0.71,2.08,1.25,-2.95,-5.85,36.03,-0.12
16,-4.52,-2.52,49.95,0.71,2.08,1.25,-2.95,-5.85,36.03,-0.12
17,-4.52,-2.52,49.95,1.11,0.93,1.25,-3.07,-5.34,36.03,-0.12
18,-3.29,-2.52,49.95,1.11,0.93,1.48,-3.07,-5.34,36.03,-0.46
19,-3.29,-0.31,49.04,1.11,0.93,1.48,-3.07,-5.34,36.03,-0.46
20,-3.29,-0.31,49.04,4.25,2.23,1.48,-0.94,-5.34,37.46,-0.46
21,-3.53,-0.31,49.04,4.25,2.23,2.84,-0.94,-5.34,37.46,0.24
22,-3.53,-4.32,49.04,7.66,2.23,2.84,-0.94,-5.34,37.46,0.24
23,-3.53,-4.32,56.64,7.66,4.57,5.71,-3.54,-5.34,37.46,0.24
24,-4.26,-4.32,56.64,7.66,4.57,5.71,-3.54,-1.35,38.29,0.28

0,11.88,4.37,40.77,17.38,-4.95,-5.65,-10.75,1.94,42.62,-0.04
1,-5.6,4.37,40.77,17.38,-4.95,2.51,10.05,5.02,42.62,0.05
2,-5.6,1.75,40.77,17.38,-4.95,2.51,10.05,5.02,42.62,0.05
3,-5.6,1.75,40.34,0.28,-4.37,-3.94,10.05,5.02,42.62,0.05
4,-5.6,1.75,40.34,0.28,-4.37,-3.94,0.92,-1.1,40.37,0.2
5,-0.86,0.38,40.34,0.28,-4.37,-3.94,0.92,-1.1,40.37,0.2
6,-0.86,0.38,50.32,0.28,-4.37,-3.94,0.92,-1.1,40.37,0.2
7,-0.66,0.38,50.32,0.28,-4.37,-3.94,0.92,-1.1,40.37,0.2
8,-0.66,-1.14,49.38,1.25,-4.37,-3.94,0.92,-1.1,40.37,0.2
9,-0.66,-1.14,49.38,1.25,2.57,1.55,-0.88,-1.1,40.77,0.2
10,-0.0,-1.14,49.38,1.25,2.57,1.55,-0.88,-1.1,40.77,-0.59
11,-0.0,0.1,48.66,0.83,2.34,1.55,-0.88,-1.1,40.77,-0.59
12,-1.08,0.1,48.66,0.83,2.34,0.89,0.03,0.88,40.77,0.04
13,-1.08,-0.56,49.81,0.83,2.34,0.89,0.03,0.88,40.77,0.04
14,-1.08,-0.56,49.81,0.41,2.85,0.89,-0.63,0.88,40.77,0.04
15,-0.11,-0.56,49.81,0.41,2.85,1.07,-0.63,0.88,41.16,0.63
16,-0.11,-0.6,50.05,0.41,2.85,1.07,-0.63,0.88,41.16,0.63
17,-0.11,-0.6,50.05,-0.7,2.64,1.07,-0.43,-0.41,41.16,0.63
18,1.93,-0.6,50.05,-0.7,2.64,1.81,-0.43,-0.41,41.16,-0.57
19,1.93,1.43,49.41,0.83,2.64,1.81,-0.43,-0.41,41.16,-0.57
20,1.93,1.43,49.41,0.83,5.62,2.84,1.67,2.19,41.16,-0.57
21,9.57,1.43,49.41,0.83,5.62,2.84,1.67,2.19,41.16,0.23
22,9.57,-15.86,99.99,6.46,7.91,2.84,1.67,2.19,41.16,0.23
23,9.57,-15.86,99.99,6.46,7.91,6.86,-8.29,4.82,41.16,0.23
24,5.54,-15.86,99.99,6.46,7.91,6.86,-8.29,4.82,41.16,-0.13

0,5.98,-0.61,50.63,6.97,-0.29,-5.41,-0.45,3.0,57.64,12.68
1,0.23,-0.61,50.63,6.97,-0.29,2.38,-0.45,5.39,57.64,0.25
2,0.23,-1.73,50.18,6.97,-0.29,2.38,-0.45,5.39,57.64,0.25
3,0.23,-1.73,50.18,7.18,-2.47,2.38,-1.56,0.62,57.64,0.25
4,1.24,-1.73,50.18,7.18,-2.47,1.69,-1.56,0.62,57.64,-0.83
5,1.24,-4.08,50.24,4.0,-2.47,1.69,-1.56,0.62,57.64,-0.83
6,1.24,-4.08,50.24,4.0,-1.74,2.47,-4.36,1.41,57.64,-0.83
7,-0.85,-4.08,50.24,4.0,-1.74,2.47,-4.36,1.41,59.24,-0.25
8,-0.85,-4.16,50.68,3.07,-1.74,2.47,-4.36,1.41,59.24,-0.25
9,-0.85,-4.16,50.68,3.07,0.21,2.34,-4.41,-0.77,59.24,-0.25
10,1.64,-4.16,50.68,3.07,0.21,2.34,-4.41,-0.77,59.24,-0.28
11,1.64,-3.25,49.6,3.63,0.44,2.34,-4.41,-0.77,59.24,-0.28
12,1.64,-3.25,49.6,3.63,0.44,2.55,-4.04,0.58,59.24,-0.32
13,-0.07,-4.08,49.6,3.63,0.44,2.55,-4.04,0.58,59.24,-0.32
14,-0.07,-4.08,49.39,1.84,1.57,2.55,-4.79,0.58,59.24,-0.32
15,0.35,-4.08,49.39,1.84,1.57,2.63,-4.79,0.02,59.24,0.01
16,0.35,-5.62,49.74,1.84,1.57,2.63,-4.79,0.02,59.24,0.01
17,0.35,-5.62,49.74,1.19,1.41,2.63,-6.07,0.02,60.71,0.01
18,0.13,-5.62,49.74,1.19,1.41,1.06,-6.07,0.02,60.71,0.23
19,0.13,-2.44,48.43,1.19,1.41,1.06,-6.07,0.02,60.71,0.23
20,0.13,-2.44,48.43,2.64,5.14,1.06,-3.7,3.05,60.71,0.23
21,5.24,-2.44,48.43,2.64,5.14,2.25,-3.7,3.05,60.71,2.41
22,5.24,-23.51,99.99,14.5,5.14,2.25,-3.7,3.05,60.71,2.41
23,5.24,-23.51,99.99,14.5,3.97,7.11,-10.12,8.41,60.71,2.41
24,-8.89,-23.51,99.99,14.5,3.97,7.11,-10.12,8.41,60.71,3.24

0,-5.62,-3.76,48.73,1.2,1.18,1.05,-5.09,-3.25,70.42,-0.16
1,-5.62,-3.76,48.73,1.2,1.18,1.96,-4.37,-7.79,70.42,-0.16
2,-5.62,-3.76,48.73,1.2,1.18,1.96,-4.37,-7.79,70.42,-0.04
3,-5.45,-6.05,49.8,1.1,1.18,1.96,-4.37,-7.79,70.42,-0.04
4,-5.45,-6.05,49.8,1.1,3.09,0.31,-6.09,-4.84,70.42,-0.04
5,-4.8,-4.43,49.8,1.1,3.09,0.31,-6.09,-4.84,70.42,1.12
6,-4.8,-4.43,48.53,0.09,1.19,0.31,-5.2,-4.84,70.42,1.12
7,-6.12,-4.43,48.53,0.09,1.19,1.5,-5.2,-5.49,70.42,-0.08
8,-6.12,-4.75,49.58,0.09,1.19,1.5,-5.2,-5.49,70.42,-0.08
9,-6.12,-4.75,49.58,0.71,5.34,1.12,-5.2,-5.49,70.42,-0.08
10,-6.12,-4.75,49.58,0.71,5.34,1.12,-5.43,-5.73,71.28,-0.13
11,-1.6,-3.87,49.52,0.71,5.34,1.12,-5.43,-5.73,71.28,-0.13
12,-1.6,-3.87,49.52,0.43,-0.1,1.12,-5.11,-4.75,71.28,-0.13
13,-4.26,-3.87,49.52,0.43,-0.1,1.09,-5.11,-4.75,71.28,-1.8
14,-4.26,-4.55,50.42,1.32,-0.1,1.09,-5.11,-4.75,71.28,-1.8
15,-4.26,-4.55,50.42,1.32,4.89,1.79,-5.19,-4.87,71.28,-1.8
16,-3.86,-4.55,50.42,1.32,4.89,1.79,-5.19,-4.87,71.28,0.04
17,-3.86,-5.42,48.86,2.14,7.39,1.79,-5.19,-4.87,71.28,0.04
18,-3.86,-5.42,48.86,2.14,7.39,2.99,-5.74,-2.9,71.28,-0.15
19,4.56,-10.71,48.86,2.14,7.39,2.99,-5.74,-2.9,71.28,-0.15
20,4.56,-10.71,72.84,4.06,11.86,2.99,-8.47,-2.9,71.28,-0.15
21,-7.32,-10.71,72.84,4.06,11.86,8.11,-8.47,2.12,71.28,-0.26
22,-7.32,-29.7,72.84,4.06,11.86,8.11,-8.47,2.12,71.28,-0.26
23,-7.32,-29.7,99.99,-40.64,10.85,8.11,-15.34,2.12,71.28,-0.26
24,7.09,-29.7,99.99,-40.64,10.85,4.38,-15.34,-5.25,71.28,-0.14

0,1.97,-4.42,50.75,15.58,-3.66,1.2,-1.32,1.11,89.67,0.56
1,1.97,-4.42,50.75,15.58,-3.66,3.93,-4.52,1.11,87.22,-1.8
2,-4.44,-4.42,50.75,15.58,-3.66,3.93,-4.52,1.11,87.22,-1.8
3,-4.44,-7.46,48.86,8.74,0.83,3.93,-4.52,1.11,87.22,-1.8
4,0.37,-7.46,48.86,8.74,0.83,-0.99,-7.44,-1.48,87.22,0.01
5,0.37,-7.17,50.59,8.74,0.83,-0.99,-7.44,-1.48,87.22,0.01
6,0.37,-7.17,50.59,11.4,-5.31,-0.99,-8.25,-0.78,87.22,0.01
7,-2.88,-7.17,50.59,11.4,-5.31,-1.86,-8.25,-0.78,87.22,-1.69
8,-2.88,-8.87,48.58,11.4,-5.31,-1.86,-8.25,-0.78,87.22,-1.69
9,-2.88,-8.87,48.58,6.7,-1.6,-1.86,-10.25,-4.43,87.22,-1.69
10,-4.49,-8.87,48.58,6.7,-1.6,-0.99,-10.25,-4.43,87.22,-0.09
11,-4.49,-9.72,50.65,8.01,-1.37,-0.99,-10.25,-4.43,87.22,-0.09
12,-4.49,-9.72,50.65,8.01,-1.37,2.13,-10.74,-6.14,87.46,-0.09
13,-2.4,-9.72,50.65,8.01,-1.37,2.13,-10.74,-6.14,87.46,-0.31
14,-2.4,-11.62,49.91,4.81,1.85,2.13,-13.02,-6.14,87.46,-0.31
15,-2.4,-11.62,49.91,4.81,1.85,1.53,-13.02,-6.14,87.63,-0.38
16,-4.03,-11.08,49.91,4.81,1.85,1.53,-13.02,-6.14,87.63,-0.38
17,-4.03,-11.08,47.73,0.77,0.94,1.53,-13.05,-6.14,87.63,-0.38
18,-4.03,-11.08,47.73,0.77,0.94,1.23,-13.05,-3.35,87.63,-0.01
19,-3.03,-9.85,49.79,0.77,0.94,1.23,-13.05,-3.35,87.63,-0.01
20,-3.03,-9.85,49.79,5.44,0.38,1.23,-11.65,-3.88,87.63,-0.01
21,4.3,-9.85,49.79,5.44,0.38,3.9,-11.65,-3.88,87.63,-1.09
22,4.3,-18.28,98.49,18.42,0.38,3.9,-11.65,-3.88,87.63,-1.09
23,4.3,-18.28,98.49,18.42,9.41,3.9,-10.0,1.41,87.63,-1.09
24,-9.77,-18.28,98.49,18.42,9.41,9.39,-10.0,1.41,87.63,-6.08

0,-6.88,-3.88,48.25,2.08,0.8,1.89,-2.48,0.29,93.54,-0.04
1,-6.88,-3.88,48.25,2.08,0.8,-0.32,-4.49,-8.15,93.54,-0.3
2,-6.13,-3.88,48.25,2.08,0.8,-0.32,-4.49,-8.15,93.54,-0.3
3,-6.13,-4.61,49.83,1.3,0.31,-0.32,-5.15,-8.15,93.54,-0.3
4,-7.69,-4.61,49.83,1.3,0.31,0.74,-5.15,-7.5,93.54,-0.95
5,-7.69,-3.73,49.43,1.3,0.31,0.74,-5.15,-7.5,93.54,-0.95
6,-7.69,-3.73,49.43,0.61,0.96,0.74,-4.64,-8.22,93.54,-0.95
7,-5.94,-3.73,49.43,0.61,0.96,0.64,-4.64,-8.22,93.54,0.34
8,-5.94,-4.04,48.85,2.2,0.96,0.64,-4.64,-8.22,93.54,0.34
9,-5.94,-4.04,48.85,2.2,-0.74,1.41,-4.8,-8.22,93.83,0.34
10,-7.37,-4.04,48.85,2.2,-0.74,1.41,-4.8,-8.22,93.83,-0.07
11,-7.37,-5.04,49.16,0.85,2.0,1.41,-4.8,-8.22,93.83,-0.07
12,-7.37,-5.04,49.16,0.85,2.0,0.96,-5.61,-8.43,93.83,0.2
13,-5.72,-5.04,49.16,0.85,2.0,0.96,-5.61,-8.43,93.83,0.2
14,-5.72,-5.29,49.23,1.73,0.87,0.96,-5.61,-8.43,93.83,0.2
15,-5.72,-5.29,49.23,1.73,0.87,1.52,-6.0,-7.1,93.83,-0.74
16,-6.79,-5.29,49.23,1.73,0.87,1.52,-6.0,-7.1,93.83,-0.74
17,-6.79,-5.36,48.68,1.67,3.15,1.52,-6.0,-7.1,93.83,-0.74
18,-6.79,-5.36,48.68,1.67,3.15,1.08,-6.21,-7.96,94.43,-0.57
19,-6.56,-5.22,48.68,1.67,3.15,1.08,-6.21,-7.96,94.43,-0.57
20,-6.56,-5.22,47.99,2.9,5.16,1.08,-6.21,-7.96,94.43,-0.57
21,-6.56,-5.22,47.99,2.9,5.16,1.63,-6.02,-7.96,94.63,-0.24
22,-3.56,-4.83,47.99,2.9,5.16,1.63,-6.02,-7.96,94.63,-0.24
23,-3.56,-4.83,56.25,9.69,9.01,1.63,-4.95,-7.96,94.63,-0.24
24,-6.87,-4.83,56.25,9.69,9.01,5.35,-4.95,-7.96,95.22,-0.07

0,-2.03,-6.7,49.89,1.17,-3.78,0.23,-7.61,-5.09,96.4,1.74
1,-2.03,-6.7,49.89,1.17,0.8,0.93,-7.8,-2.87,96.4,1.74
2,-8.07,-6.7,49.89,1.17,0.8,0.93,-7.8,-2.87,96.4,-0.45
3,-8.07,-6.61,49.94,1.66,1.4,0.93,-7.8,-2.87,96.4,-0.45
4,-8.07,-6.61,49.94,1.66,1.4,-0.06,-7.15,-6.27,96.4,-0.16
5,-0.94,-6.61,49.94,1.66,1.4,-0.06,-7.15,-6.27,96.4,-0.16
6,-0.94,-6.9,49.1,2.24,1.74,-0.06,-8.13,-6.27,96.4,-0.16
7,-0.94,-6.9,49.1,2.24,1.74,1.29,-8.13,-3.3,96.4,-0.26
8,-3.68,-6.59,49.1,2.24,1.74,1.29,-8.13,-3.3,96.4,-0.26
9,-3.68,-6.59,49.6,0.32,2.8,1.29,-7.82,-3.3,96.4,-0.26
10,-2.16,-6.59,49.6,0.32,2.8,0.38,-7.82,-4.16,96.4,-0.47
11,-2.16,-7.09,50.32,0.32,2.8,0.38,-7.82,-4.16,96.4,-0.47
12,-2.16,-7.09,50.32,0.92,1.25,0.38,-8.1,-4.16,96.4,-0.47
13,-2.16,-7.09,50.32,0.92,1.25,0.16,-8.1,-4.16,96.79,-0.61
14,-3.98,-6.56,48.93,0.92,1.25,0.16,-8.1,-4.16,96.79,-0.61
15,-3.98,-6.56,48.93,0.62,2.48,0.16,-7.75,-4.16,96.89,-0.61
16,-3.85,-6.56,48.93,0.62,2.48,0.52,-7.75,-4.16,96.89,-0.31
17,-3.85,-7.22,49.22,1.9,3.37,0.52,-7.75,-4.16,96.89,-0.31
18,-3.85,-7.22,49.22,1.9,3.37,0.49,-8.24,-3.47,96.89,-0.31
19,0.18,-7.22,49.22,1.9,3.37,0.49,-8.24,-3.47,97.0,-0.3
20,0.18,-4.54,50.63,6.73,9.39,0.49,-5.15,-3.47,97.0,-0.3
21,0.18,-4.54,50.63,6.73,9.39,2.12,-5.15,-0.11,97.0,-0.51
22,1.71,-30.91,50.63,6.73,9.39,2.12,-5.15,-0.11,97.0,-0.51
23,1.71,-30.91,99.99,7.7,10.78,2.12,-13.68,-0.11,97.0,-0.51
24,12.73,-30.91,99.99,7.7,10.78,0.71,-13.68,0.56,97.0,-4.9

0,7.6,-2.21,68.05,7.77,-18.13,-8.59,-2.95,1.36,86.04,-0.3
1,7.6,-2.21,54.3,9.37,-2.08,-8.59,-2.55,1.36,86.04,-0.3
2,0.74,-2.21,54.3,9.37,-2.08,-1.44,-2.55,1.36,84.64,0.05
3,0.74,-0.29,48.19,9.37,-2.08,-1.44,-2.55,1.36,84.64,0.05
4,0.74,-0.29,48.19,7.47,-2.89,-1.44,-0.44,0.49,84.64,0.05
5,3.09,-0.29,48.19,7.47,-2.89,2.98,-0.44,0.49,84.64,-0.88
6,3.09,-4.01,48.77,3.67,-2.89,2.98,-0.44,0.49,84.64,-0.88
7,3.09,-4.01,48.77,3.67,1.8,-0.94,-3.59,3.65,84.64,-0.88
8,0.29,-4.01,48.77,3.67,1.8,-0.94,-3.59,3.65,84.64,0.38
9,0.29,-3.88,50.52,9.25,2.6,-0.94,-3.59,3.65,84.64,0.38
10,0.29,-3.88,50.52,9.25,2.6,0.97,-4.12,3.65,85.19,0.2
11,0.26,-5.88,50.52,9.25,2.6,0.97,-4.12,3.65,85.19,0.2
12,0.26,-5.88,48.16,5.48,3.83,0.97,-4.12,3.65,85.19,0.2
13,1.43,-5.88,48.16,5.48,3.83,1.0,-6.57,2.57,85.19,-0.23
14,1.43,-6.85,49.09,5.48,3.83,1.0,-6.57,2.57,85.19,-0.23
15,1.43,-6.85,49.09,5.22,4.59,1.0,-7.65,2.17,85.19,-0.23
16,5.29,-6.85,49.09,5.22,4.59,3.31,-7.65,2.17,85.19,-0.07
17,5.29,-7.67,47.59,5.22,4.59,3.31,-7.65,2.17,85.19,-0.07
18,5.29,-7.67,47.59,5.32,4.46,3.15,-8.81,2.17,85.19,-0.07
19,1.43,-7.67,47.59,5.32,4.46,3.15,-8.81,5.19,86.34,-1.79
20,1.43,-11.07,73.77,11.07,4.46,3.15,-8.81,5.19,86.34,-1.79
21,1.43,-11.07,73.77,11.07,3.62,6.77,-8.15,5.19,87.25,-1.79
22,1.59,-11.07,73.77,11.07,3.62,6.77,-8.15,5.19,87.25,-0.21
23,1.59,-35.57,99.99,-18.56,14.59,6.77,-8.15,5.19,87.25,-0.21
24,1.59,-35.57,99.99,-18.56,14.59,15.69,-17.88,1.09,87.25,-0.31

0,-2.83,-1.72,48.91,-0.08,-2.92,-0.94,-1.55,-4.78,105.17,-1.28
1,-2.19,-1.72,48.91,-0.08,-2.92,-0.94,-1.55,-4.78,105.17,-0.32
2,-2.19,-2.33,48.91,-0.08,-2.92,-0.94,-1.55,-4.78,105.17,-0.32
3,-2.19,-2.33,49.12,1.0,2.62,-0.94,-2.62,-4.78,105.17,-0.32
4,-2.19,-2.33,49.12,1.0,2.62,-1.82,-2.62,-2.26,105.17,-0.2
5,-3.63,-2.87,49.19,1.0,2.62,-1.82,-2.62,-2.26,105.17,-0.2
6,-3.63,-2.87,49.19,2.08,4.77,-1.82,-2.94,-2.26,105.17,-0.2
7,-2.18,-2.87,49.19,2.08,4.77,-2.08,-2.94,-2.56,105.17,-0.1
8,-2.18,-2.91,50.98,2.08,4.77,-2.08,-2.94,-2.56,105.17,-0.1
9,-2.18,-2.91,50.98,3.66,4.52,0.04,-3.45,-2.48,105.17,-0.1
10,-1.05,-2.91,50.98,3.66,4.52,0.04,-3.45,-2.48,105.17,-0.43
11,-1.05,-3.33,49.65,2.58,5.82,0.04,-3.45,-2.48,105.17,-0.43
12,-1.05,-3.33,49.65,2.58,5.82,-0.43,-3.63,-1.12,105.17,-0.04
13,-1.51,-3.33,49.65,2.58,5.82,-0.43,-3.63,-1.12,105.17,-0.04
14,-1.51,-4.64,48.6,4.59,5.91,-0.43,-3.63,-1.12,105.17,-0.04
15,-1.51,-4.64,48.6,4.59,5.91,-0.25,-5.09,0.2,104.16,-0.04
16,1.11,-3.86,48.6,4.59,5.91,-0.25,-5.09,0.2,104.16,-0.27
17,1.11,-3.86,57.22,2.56,3.17,-0.25,-4.27,0.2,104.16,-0.27
18,1.11,-3.86,57.22,2.56,3.17,0.77,-4.27,1.74,104.16,0.34
19,4.32,-3.86,57.22,2.56,3.17,0.77,-4.27,1.74,104.16,0.34
20,4.32,-19.38,99.99,-18.65,4.91,0.77,-4.27,1.74,104.16,0.34
21,4.32,-19.38,99.99,-18.65,4.91,1.99,-9.74,3.15,104.16,1.62
22,-3.65,-28.34,99.99,-78.8,4.91,1.99,-9.74,3.15,104.16,1.62
23,-3.65,-28.34,99.99,-78.8,-7.54,1.99,-15.24,-6.77,104.16,1.62
24,-18.35,-28.34,99.99,-78.8,-7.54,8.03,-15.24,-6.77,105.2,1.62

0,-3.94,-4.1,48.23,1.43,-4.34,2.72,-2.46,-1.72,115.84,-0.11
1,-3.94,-4.1,48.23,1.43,-0.58,0.99,-4.33,-1.72,116.3,0.77
2,-3.44,-4.5,48.23,1.43,-0.58,0.99,-4.33,-1.72,116.3,0.77
3,-3.44,-4.5,49.81,4.2,-0.06,0.99,-4.81,-1.72,116.3,0.77
4,-3.92,-4.5,49.81,4.2,-0.06,1.14,-4.81,-3.35,116.3,0.89
5,-3.92,-5.11,48.9,4.2,-0.06,1.14,-4.81,-3.35,116.3,0.89
6,-3.92,-5.11,48.9,2.56,1.25,1.39,-5.7,-4.27,116.3,0.89
7,-1.12,-5.11,48.9,2.56,1.25,1.39,-5.7,-4.27,116.3,0.8
8,-1.12,-5.16,48.33,3.36,1.25,1.39,-5.7,-4.27,116.3,0.8
9,-1.12,-5.16,48.33,3.36,-0.15,3.05,-6.39,-3.67,116.3,0.8
10,-3.73,-5.16,48.33,3.36,-0.15,3.05,-6.39,-3.67,116.3,-1.28
11,-3.73,-6.71,50.38,4.75,3.22,3.05,-6.39,-3.67,116.3,-1.28
12,-3.73,-6.71,50.38,4.75,3.22,1.88,-7.19,-4.13,116.3,-1.28
13,-3.05,-6.71,50.38,4.75,3.22,1.88,-7.19,-4.13,116.3,-0.18
14,-3.05,-7.01,50.06,3.14,3.22,1.88,-7.19,-4.13,116.3,-0.18
15,-3.05,-7.01,50.06,3.14,2.29,2.06,-7.75,-3.27,116.3,-0.18
16,-3.05,-7.01,50.06,3.14,2.29,2.06,-7.75,-3.27,116.3,-0.27
17,-2.33,-7.01,50.06,3.14,2.29,2.06,-7.75,-3.32,118.33,-0.27
18,1.61,-7.01,50.06,3.14,2.29,2.06,-7.75,-3.32,118.33,-0.02
19,1.61,-10.97,50.06,3.14,2.29,2.06,-7.75,-3.32,118.33,-0.02
20,1.61,-10.97,72.4,7.06,8.85,2.06,-8.52,-3.32,118.33,-0.02
21,1.86,-10.97,72.4,7.06,8.85,1.82,-8.52,2.74,118.33,1.82
22,1.86,-34.91,99.99,7.06,8.85,1.82,-8.52,2.74,118.33,1.82
23,1.86,-34.91,99.99,-38.69,3.31,1.82,-16.88,2.74,118.33,1.82
24,-3.45,-34.91,99.99,-38.69,3.31,2.79,-16.88,1.85,118.33,0.04

0,-3.91,-5.63,49.36,2.26,0.12,0.34,-5.32,-8.96,137.45,-0.13
1,-3.91,-5.63,49.36,2.26,0.12,-0.79,-6.42,-3.95,137.45,-0.29
2,-7.53,-4.95,49.36,2.26,0.12,-0.79,-6.42,-3.95,137.45,-0.29
3,-7.53,-4.95,48.71,4.05,2.53,-0.79,-5.56,-3.95,137.45,-0.29
4,-3.1,-4.95,48.71,4.05,2.53,-0.82,-5.56,-3.95,137.36,0.11
5,-3.1,-6.64,48.71,4.05,2.53,-0.82,-5.56,-3.95,137.36,0.11
6,-3.1,-6.64,48.85,3.31,1.05,-0.82,-7.75,-3.95,137.36,0.11
7,-7.28,-6.64,48.85,3.31,1.05,-0.85,-7.75,-3.77,137.36,-0.08
8,-7.28,-6.92,48.85,3.31,1.05,-0.85,-7.75,-3.77,137.36,-0.08
9,-7.28,-6.92,49.55,1.85,1.13,-0.85,-7.68,-3.77,137.36,-0.08
10,-6.86,-6.92,49.55,1.85,1.13,0.19,-7.68,-6.67,137.36,-0.32
11,-6.86,-7.51,49.37,1.85,1.13,0.19,-7.68,-6.67,137.36,-0.32
12,-6.86,-7.51,49.37,2.54,3.5,0.19,-8.44,-5.56,137.36,-0.32
13,-4.0,-7.51,49.37,2.54,3.5,-0.73,-8.44,-5.56,137.36,0.63
14,-4.0,-7.05,48.52,2.42,3.5,-0.73,-8.44,-5.56,137.36,0.63
15,-4.0,-7.05,48.52,2.42,0.08,0.63,-8.67,-5.91,137.36,0.63
16,-7.12,-7.05,48.52,2.42,0.08,0.63,-8.67,-5.91,137.36,-1.2
17,-7.12,-7.41,49.84,2.51,1.92,0.63,-8.67,-5.91,137.36,-1.2
18,-7.12,-7.41,49.84,2.51,1.92,-0.24,-8.42,-4.81,137.36,-1.2
19,-0.99,-7.41,49.84,2.51,1.92,-0.24,-8.42,-4.81,137.25,0.36
20,-0.99,-5.37,57.02,5.98,4.16,-0.24,-8.42,-4.81,137.25,0.36
21,7.39,-5.37,57.02,5.98,4.16,2.44,-5.09,-1.84,137.25,-0.16
22,7.39,-35.54,57.02,5.98,4.16,2.44,-5.09,-1.84,137.25,-0.16
23,7.39,-35.54,99.99,-13.3,1.23,2.44,-18.78,-1.84,137.25,-0.16
24,0.11,-35.54,99.99,-13.3,1.23,-3.66,-18.78,2.12,137.25,-0.11

0,-8.37,-8.29,48.22,-0.14,0.78,0.24,-8.83,-8.65,149.39,-0.35
1,-8.37,-8.29,48.22,-0.14,-1.22,0.66,-9.6,-8.65,149.32,-0.35
2,-8.37,-8.29,48.22,-0.14,-1.22,0.66,-9.6,-8.65,149.32,-0.25
3,-7.87,-8.29,48.22,-0.14,-1.22,0.66,-9.6,-8.65,149.32,-0.25
4,-7.87,-8.29,48.22,-0.14,-1.22,1.45,-9.6,-8.65,149.32,-0.27
5,-9.34,-8.29,48.22,-0.14,-1.22,1.45,-9.6,-8.65,149.32,-0.27
6,-9.34,-9.3,48.58,1.94,0.73,1.45,-9.6,-8.65,149.32,-0.27
7,-9.34,-9.3,48.58,1.94,0.73,0.78,-10.76,-8.65,149.69,-0.04
8,-7.35,-9.3,48.58,1.94,0.73,0.78,-10.76,-8.65,149.69,-0.04
9,-7.35,-8.68,48.02,2.04,-0.61,0.78,-10.76,-8.65,149.69,-0.04
10,-7.35,-8.68,48.02,2.04,-0.61,1.55,-10.64,-10.04,149.69,-1.38
11,-9.23,-9.82,48.02,2.04,-0.61,1.55,-10.64,-10.04,149.69,-1.38
12,-9.23,-9.82,48.87,0.81,1.32,1.55,-11.19,-10.04,149.69,-1.38
13,-8.53,-9.82,48.87,0.81,1.32,0.72,-11.19,-10.59,149.69,-0.23
14,-8.53,-9.34,47.98,0.81,1.32,0.72,-11.19,-10.59,149.69,-0.23
15,-8.53,-9.34,47.98,0.39,0.83,0.79,-11.19,-10.59,149.69,-0.23
16,-9.84,-9.34,47.98,0.39,0.83,0.79,-10.83,-10.52,150.18,-0.04
17,-9.84,-9.52,48.56,0.39,0.83,0.79,-10.83,-10.52,150.18,-0.04
18,-9.84,-9.52,48.56,1.33,3.56,0.78,-10.85,-10.52,150.3,-0.04
19,-6.55,-9.52,48.56,1.33,3.56,0.78,-10.85,-10.52,150.3,0.34
20,-6.55,-5.31,48.15,4.43,3.56,0.78,-10.85,-10.52,150.3,0.34
21,-6.55,-5.31,48.15,4.43,6.24,2.47,-7.75,-8.33,150.3,0.34
22,-3.04,-5.31,48.15,4.43,6.24,2.47,-7.75,-8.33,150.3,0.45
23,-3.04,-16.23,72.16,11.67,16.64,2.47,-7.75,-8.33,150.3,0.45
24,-3.04,-16.23,72.16,11.67,16.64,6.07,-10.72,1.15,150.3,0.45

0,-10.79,-9.27,47.7,2.19,-6.45,4.72,-10.52,-1.52,153.56,-2.23
1,-10.79,-9.27,47.7,2.19,-2.23,1.48,-11.08,-1.52,153.99,-2.23
2,-6.6,-9.27,47.7,2.19,-2.23,1.48,-11.08,-1.52,153.99,-0.26
3,-6.6,-9.59,48.6,1.12,-0.78,1.48,-11.08,-1.52,153.99,-0.26
4,-6.6,-9.59,48.6,1.12,-0.78,0.58,-11.17,-8.13,153.99,-0.76
5,-7.61,-9.57,48.6,1.12,-0.78,0.58,-11.17,-8.13,153.99,-0.76
6,-7.61,-9.57,47.0,0.36,0.63,0.58,-11.38,-8.13,153.99,-0.76
7,-6.56,-9.57,47.0,0.36,0.63,0.38,-11.38,-8.31,153.99,0.86
8,-6.56,-9.71,48.18,0.36,0.63,0.38,-11.38,-8.31,153.99,0.86
9,-6.56,-9.71,48.18,0.71,-2.04,1.46,-11.31,-9.89,153.99,0.86
10,-8.02,-9.71,48.18,0.71,-2.04,1.46,-11.31,-9.89,153.99,-0.59
11,-8.02,-10.41,47.23,1.28,-2.04,1.46,-11.31,-9.89,153.99,-0.59
12,-8.02,-10.41,47.23,1.28,1.17,1.31,-12.3,-9.36,153.99,-0.59
13,-8.48,-10.41,47.23,1.28,1.17,1.31,-12.3,-9.36,153.99,-0.31
14,-8.48,-10.88,48.36,0.06,0.92,1.31,-12.3,-9.36,153.99,-0.31
15,-8.48,-10.88,48.36,0.06,0.92,0.84,-12.41,-9.36,154.72,-0.32
16,-9.58,-10.53,48.36,0.06,0.92,0.84,-12.41,-9.36,154.72,-0.32
17,-9.58,-10.53,48.22,0.46,-0.1,0.84,-12.41,-9.36,154.72,-0.32
18,-9.58,-10.53,48.22,0.46,-0.1,1.3,-12.17,-10.99,154.97,-0.33
19,-7.24,-10.53,48.22,0.46,-0.1,1.3,-12.17,-10.99,154.97,-0.33
20,-7.24,-9.16,48.22,0.43,1.98,1.61,-12.17,-10.99,154.97,-0.33
21,-7.24,-9.16,48.67,0.43,1.98,1.61,-12.17,-8.84,155.14,-0.33
22,-7.56,-9.54,51.21,0.43,1.98,1.61,-12.17,-8.84,155.14,-0.33
23,-7.56,-9.54,51.21,4.1,8.61,1.61,-10.26,-4.93,155.14,-0.33
24,-6.96,-9.54,51.21,4.1,8.61,4.34,-10.26,-4.93,155.14,-0.17

0,-8.14,-10.86,48.85,3.19,-1.33,1.27,-13.17,-7.69,161.01,-0.27
1,-8.14,-10.86,48.85,3.19,-1.33,2.06,-12.79,-8.78,161.01,-0.11
2,-5.02,-11.65,48.85,3.19,-1.33,2.06,-12.79,-8.78,161.01,-0.11
3,-5.02,-11.65,49.03,0.75,1.97,2.06,-13.24,-8.78,161.01,-0.11
4,-8.15,-11.65,49.03,0.75,1.97,1.14,-13.24,-6.66,161.01,-0.07
5,-8.15,-11.29,49.03,0.75,1.97,1.14,-13.24,-6.66,161.01,-0.07
6,-8.15,-11.29,47.09,1.28,3.43,1.14,-13.15,-6.66,161.01,-0.07
7,-6.73,-11.29,47.09,1.28,3.43,1.96,-13.15,-8.87,161.01,0.39
8,-6.73,-11.69,48.2,1.28,3.43,1.96,-13.15,-8.87,161.01,0.39
9,-6.73,-11.69,48.2,2.11,2.66,1.96,-13.37,-8.87,162.06,0.39
10,-5.98,-11.69,48.2,2.11,2.66,2.64,-13.37,-8.87,162.06,-0.55
11,-5.98,-13.4,47.24,0.82,2.66,2.64,-13.37,-8.87,162.06,-0.55
12,-5.98,-13.4,47.24,0.82,2.66,2.64,-13.37,-8.87,162.06,-0.55
13,-6.38,-13.4,47.24,0.82,2.66,2.64,-13.37,-8.87,162.06,-0.55
14,-6.38,-12.25,48.48,1.54,3.01,2.64,-13.37,-8.87,162.06,-0.55
15,-6.38,-12.25,48.48,1.54,3.01,1.97,-14.28,-8.87,162.72,-1.05
16,-5.61,-12.25,48.48,1.54,3.01,1.97,-14.28,-8.87,162.72,-1.05
17,-5.61,-12.76,48.24,1.42,5.87,1.97,-14.91,-8.87,162.72,-1.05
18,-3.39,-12.76,48.24,1.42,5.87,1.39,-14.91,-8.87,163.02,0.69
19,-3.39,-10.8,50.78,1.42,5.87,1.39,-14.91,-8.87,163.02,0.69
20,-3.39,-10.8,50.78,2.3,5.49,1.39,-12.41,-4.26,163.02,0.69
21,-5.27,-10.8,50.78,2.3,5.49,3.17,-12.41,-4.26,163.02,-0.21
22,-5.27,-30.8,99.99,2.3,5.49,3.17,-12.41,-4.26,163.02,-0.21
23,-5.27,-30.8,99.99,-1.24,1.07,3.17,-15.76,-2.73,163.02,-0.21
24,16.18,-30.8,99.99,-1.24,1.07,-0.56,-15.76,-2.73,163.02,-0.24

0,-8.07,-10.75,49.44,4.37,-2.51,-0.63,-12.32,-9.89,176.04,-0.04
1,-8.07,-10.75,49.44,4.37,-2.51,1.31,-12.32,-12.17,176.04,-0.79
2,-6.86,-10.75,49.44,4.37,-2.51,1.31,-12.32,-12.17,176.04,-0.79
3,-6.86,-10.62,48.91,1.82,1.03,1.31,-12.32,-12.17,176.04,-0.79
4,-6.86,-10.62,48.91,1.82,1.03,2.0,-12.81,-11.29,176.04,-1.35
5,-6.95,-11.72,49.33,1.82,1.03,2.0,-12.81,-11.29,176.04,-1.35
6,-6.95,-11.72,49.33,1.07,2.07,2.0,-13.31,-8.49,176.04,-1.35
7,-9.39,-11.72,49.33,1.07,2.07,0.55,-13.31,-8.49,176.04,-0.32
8,-9.39,-10.8,47.78,1.07,2.07,0.55,-13.31,-8.49,176.04,-0.32
9,-9.39,-10.8,47.78,0.43,2.03,0.55,-12.94,-8.49,176.81,-0.32
10,-7.79,-10.8,47.78,0.43,2.03,1.51,-12.94,-8.49,176.81,-0.24
11,-7.79,-11.48,47.94,-0.38,2.03,1.51,-12.94,-8.49,176.81,-0.24
12,-7.79,-11.48,47.94,-0.38,2.15,1.21,-13.44,-8.49,176.81,-0.24
13,-6.97,-11.48,47.94,-0.38,2.15,1.21,-13.44,-10.18,176.93,-0.12
14,-6.97,-12.26,48.42,0.89,2.15,1.21,-13.44,-10.18,176.93,-0.12
15,-6.97,-12.26,48.42,0.89,1.03,1.21,-14.06,-8.42,176.93,-0.12
16,-9.61,-12.26,48.42,0.89,1.03,0.59,-14.06,-8.42,176.93,-0.48
17,-9.61,-11.93,47.8,-0.16,2.51,0.59,-14.06,-8.42,176.93,-0.48
18,-9.61,-11.93,47.8,-0.16,2.51,1.23,-14.0,-8.42,177.25,0.31
19,-6.76,-9.49,47.8,-0.16,2.51,1.23,-14.0,-8.42,177.25,0.31
20,-6.76,-9.49,47.42,1.34,4.83,1.23,-11.87,-8.42,177.25,0.31
21,-3.71,-9.49,47.42,1.34,4.83,2.13,-11.87,-7.77,177.25,0.29
22,-3.71,-20.03,47.42,1.34,4.83,2.13,-11.87,-7.77,177.25,0.29
23,-3.71,-20.03,88.28,3.21,6.2,2.13,-12.45,-7.77,177.25,0.29
24,-6.25,-20.03,88.28,3.21,6.2,5.9,-12.45,-6.52,177.25,-9.54

0,-12.45,-5.61,47.26,3.29,1.59,-3.29,-7.14,5.87,-177.1,-0.13
1,-10.58,-5.61,47.26,3.29,1.59,-0.11,-7.14,-14.29,-177.1,0.56
2,-10.58,-8.17,48.25,3.29,1.59,-0.11,-7.14,-14.29,-177.1,0.56
3,-10.58,-8.17,48.25,2.23,5.53,-0.11,-9.46,-14.29,-177.35,0.56
4,-10.76,-8.17,48.25,2.23,5.53,-0.29,-9.46,-14.29,-177.35,0.18
5,-10.76,-7.93,49.14,1.68,5.53,-0.29,-9.46,-14.29,-177.35,0.18
6,-10.76,-7.93,49.14,1.68,2.79,0.66,-8.88,-11.11,-177.35,0.18
7,-9.94,-7.93,49.14,1.68,2.79,0.66,-8.88,-11.11,-177.35,-0.09
8,-9.94,-7.99,48.32,1.46,2.96,0.66,-8.88,-11.11,-177.35,-0.09
9,-9.94,-7.99,48.32,1.46,2.96,1.86,-9.47,-11.34,-177.35,0.08
10,-9.93,-7.99,48.32,1.46,2.96,1.86,-9.47,-11.34,-177.35,0.08
11,-9.93,-8.76,48.37,1.54,2.28,1.86,-9.47,-11.34,-177.35,0.08
12,-9.93,-8.76,48.37,1.54,2.28,0.41,-10.09,-9.29,-176.77,0.08
13,-9.96,-8.2,48.37,1.54,2.28,0.41,-10.09,-9.29,-176.77,1.04
14,-9.96,-8.2,48.41,1.75,2.61,0.41,-9.77,-9.29,-176.77,1.04
15,-7.58,-8.2,48.41,1.75,2.61,3.28,-9.77,-13.12,-176.77,-0.01
16,-7.58,-8.92,48.57,1.75,2.61,3.28,-9.77,-13.12,-176.77,-0.01
17,-7.58,-8.92,48.57,4.21,8.55,3.28,-10.19,-9.29,-176.77,-0.01
18,-7.58,-8.92,48.57,4.21,8.55,2.12,-10.19,-9.29,-176.77,-0.25
19,-7.06,-7.31,48.57,4.21,8.55,2.12,-10.19,-9.29,-176.77,-0.25
20,-7.06,-7.31,49.27,8.24,15.65,2.12,-10.19,-9.29,-176.77,-0.25
21,-7.06,-7.31,49.27,8.24,15.65,5.08,-8.52,-6.5,-176.77,1.95
22,-3.49,-31.5,99.99,19.74,15.65,5.08,-8.52,-6.5,-176.77,1.95
23,-3.49,-31.5,99.99,19.74,15.43,6.87,-14.27,-5.15,-176.77,1.95
24,5.55,-31.5,99.99,19.74,15.43,6.87,-14.27,-5.15,-176.77,-12.56

0,-12.23,-7.64,48.63,2.64,-4.43,1.78,-9.15,-11.67,-164.65,4.32
1,-9.69,-7.64,48.63,2.64,-4.43,2.42,-9.15,-16.45,-164.65,-0.17
2,-9.69,-9.28,50.1,2.64,-4.43,2.42,-9.15,-16.45,-164.65,-0.17
3,-9.69,-9.28,50.1,1.89,2.09,2.42,-10.3,-16.45,-164.12,-0.17
4,-9.79,-9.28,50.1,1.89,2.09,-0.36,-10.3,-16.45,-164.12,-0.32
5,-9.79,-8.65,48.3,0.67,2.09,-0.36,-10.3,-16.45,-164.12,-0.32
6,-9.79,-8.65,48.3,0.67,0.68,2.04,-10.27,-16.45,-163.91,-0.32
7,-9.56,-8.65,48.3,0.67,0.68,2.04,-10.27,-16.45,-163.91,-0.04
8,-9.56,-9.62,47.89,-0.35,0.68,2.04,-10.27,-16.45,-163.91,-0.04
9,-9.56,-9.62,47.89,-0.35,1.69,0.35,-10.66,-11.1,-163.91,-0.04
10,-10.34,-9.62,47.89,-0.35,1.69,0.35,-10.66,-11.1,-163.91,-0.28
11,-10.34,-8.41,49.21,0.18,1.69,0.35,-10.66,-11.1,-163.91,-0.28
12,-10.34,-8.41,49.21,0.18,1.51,1.1,-9.74,-11.1,-163.62,-0.28
13,-9.22,-8.41,49.21,0.18,1.51,1.1,-9.74,-11.1,-163.62,-0.47
14,-9.22,-8.71,47.75,0.54,1.04,1.1,-9.74,-11.1,-163.62,-0.47
15,-9.22,-8.71,47.75,0.54,1.04,1.18,-10.39,-11.69,-163.46,-0.47
16,-10.22,-8.71,47.75,0.54,1.04,1.18,-10.39,-11.69,-163.46,-0.25
17,-10.22,-9.28,48.63,0.67,0.87,1.18,-10.39,-11.69,-163.46,-0.25
18,-10.22,-9.28,48.63,0.67,0.87,1.05,-10.61,-11.69,-163.29,-0.33
19,-10.12,-9.38,48.63,0.67,0.87,1.05,-10.61,-11.69,-163.29,-0.33
20,-10.12,-9.38,49.6,0.4,2.28,1.05,-10.65,-11.69,-163.29,-0.33
21,-10.54,-9.38,49.6,0.4,2.28,1.3,-10.65,-11.69,-163.29,-0.14
22,-10.54,-6.52,46.9,0.4,2.28,1.3,-10.65,-11.69,-163.29,-0.14
23,-10.54,-6.52,46.9,1.57,4.9,1.3,-8.24,-9.07,-163.29,-0.14
24,-8.76,-6.52,46.9,1.57,4.9,2.61,-8.24,-9.07,-163.29,-0.01

0,-3.78,-5.79,49.23,2.51,-2.29,-0.49,-7.38,-3.11,-170.08,-0.28
1,-3.78,-5.79,49.23,2.51,0.09,1.1,-6.89,-4.62,-170.08,-0.28
2,-2.52,-5.79,49.23,2.51,0.09,1.1,-6.89,-4.62,-170.08,-0.16
3,-2.52,-6.21,49.4,-0.99,0.57,1.1,-6.89,-4.62,-170.08,-0.16
4,-2.52,-6.21,49.4,-0.99,0.57,0.51,-7.34,-4.62,-169.57,-0.75
5,-4.56,-6.21,49.4,-0.99,0.57,0.51,-7.34,-4.62,-169.57,-0.75
6,-4.56,-5.72,49.29,-0.33,-0.26,0.51,-6.58,-4.62,-169.57,-0.75
7,-4.32,-5.72,49.29,-0.33,-0.26,-0.35,-6.58,-4.62,-169.48,0.56
8,-4.32,-6.02,49.94,-0.33,-0.26,-0.35,-6.58,-4.62,-169.48,0.56
9,-4.32,-6.02,49.94,0.7,2.25,-0.35,-6.72,-4.62,-169.35,0.56
10,-4.32,-6.02,49.94,0.7,2.25,1.71,-6.72,-4.62,-169.35,-0.26
11,-2.38,-6.58,49.94,0.7,2.25,1.71,-6.72,-4.62,-169.35,-0.26
12,-2.38,-6.58,48.61,-0.02,0.49,1.71,-7.72,-4.62,-169.35,-0.26
13,-4.52,-6.58,48.61,-0.02,0.49,0.65,-7.72,-3.19,-169.35,-0.05
14,-4.52,-6.88,48.99,-0.42,0.49,0.65,-7.72,-3.19,-169.35,-0.05
15,-4.52,-6.88,48.99,-0.42,2.14,0.3,-7.4,-4.1,-169.35,-0.05
16,-3.7,-6.88,48.99,-0.42,2.14,0.3,-7.4,-4.1,-169.09,-0.04
17,-3.7,-5.91,48.54,0.26,2.86,0.3,-7.4,-4.1,-169.09,-0.04
18,-3.7,-5.91,48.54,0.26,2.86,1.28,-7.07,-4.96,-169.09,-0.28
19,-1.99,-5.0,48.54,0.26,2.86,1.28,-7.07,-4.96,-169.09,-0.28
20,-1.99,-5.0,48.82,3.4,5.4,1.28,-5.91,-4.96,-169.09,-0.28
21,-5.15,-5.0,48.82,3.4,5.4,0.99,-5.91,-2.07,-169.09,-0.0
22,-5.15,-18.01,77.35,3.4,5.4,0.99,-5.91,-2.07,-169.09,-0.0
23,-5.15,-18.01,77.35,18.15,19.39,0.99,-9.22,-4.18,-169.09,-0.0
24,-8.69,-18.01,77.35,18.15,19.39,5.52,-9.22,-4.18,-169.09,-4.49

0,-17.49,25.09,36.07,-3.41,2.09,-3.23,36.07,-29.92,5.97,-0.04
1,-17.49,25.28,30.83,0.56,-12.5,0.29,36.61,-22.85,5.78,-0.1
2,-22.78,27.26,30.37,1.3,-6.89,-2.87,42.21,-38.54,5.67,-0.25
3,-21.45,24.85,25.38,4.94,-22.0,5.09,44.67,-39.76,5.67,-0.25
4,-19.82,19.78,37.15,16.73,-29.68,19.56,44.67,-39.76,5.77,-0.14
5,-30.67,16.0,54.85,16.73,-29.68,19.56,29.69,-30.03,8.58,-0.14
6,-46.88,16.0,54.85,2.27,-10.25,24.68,16.89,-32.32,12.31,-3.68
7,-46.88,17.88,51.91,-30.26,5.23,17.85,18.7,-44.28,16.11,-0.25
8,-50.25,17.42,37.03,-64.37,18.03,3.63,23.91,-56.58,17.21,0.97
9,-50.64,24.66,24.09,-64.58,22.68,-14.99,44.78,-56.58,17.21,0.97
10,-43.59,25.05,11.4,-54.35,30.16,-14.99,44.78,-67.58,15.23,1.05
11,-35.54,35.47,8.58,-54.35,30.16,-40.1,67.72,-76.92,9.46,5.22
12,-35.54,35.47,8.58,-37.22,7.1,-39.05,80.64,-84.66,3.75,2.11
13,-13.79,38.87,0.13,-27.35,6.97,-38.93,89.87,-84.66,3.75,2.11
14,-15.74,39.68,-5.73,-27.16,0.71,-32.61,89.87,-86.61,-3.47,-0.05
15,4.04,39.68,-5.73,-27.16,0.71,-32.61,96.26,45.69,-15.88,-0.9
16,8.05,40.43,-7.1,16.47,-32.23,-32.61,96.26,45.69,-15.88,-0.9
17,16.2,41.72,-7.1,16.47,-32.23,-39.06,100.77,72.77,-22.86,-4.53
18,16.2,41.72,6.49,65.51,-31.37,-9.47,73.33,48.31,-25.3,0.28
19,9.35,34.89,8.89,28.01,-25.57,7.89,73.88,49.77,-23.64,0.1
20,5.52,39.21,38.58,46.14,-21.25,22.14,46.34,8.92,-23.64,0.1
21,6.12,32.49,19.06,13.72,-21.25,22.14,46.34,8.92,-20.09,-0.82
22,-7.68,32.93,40.48,13.72,-11.1,14.3,55.77,17.11,-17.84,0.23
23,-7.68,32.93,40.48,16.6,-23.02,31.36,39.75,-12.51,-12.97,0.1
24,-13.87,30.49,41.08,12.76,-3.92,36.02,36.78,-20.61,-7.91,-4.42

0,-15.1,26.79,38.08,-3.2,-7.8,9.53,37.91,-20.03,-26.79,1.5
1,-11.69,32.52,30.11,-18.63,-1.8,13.39,46.41,-22.24,-26.79,1.5
2,-18.98,32.87,31.06,-8.64,6.58,16.71,46.41,-22.24,-25.16,-1.24
3,-16.81,33.04,31.48,-5.09,6.58,16.71,48.05,-32.01,-22.17,0.36
4,-15.07,33.15,39.81,-5.09,7.55,12.69,46.35,-28.09,-20.3,-0.06
5,-15.07,33.15,39.81,3.64,14.49,5.96,39.74,-21.91,-18.85,-0.7
6,-18.13,34.45,47.29,-12.97,21.29,14.78,37.82,-25.35,-17.14,-0.29
7,-26.76,38.58,43.55,-23.96,35.49,-0.56,43.65,-34.13,-15.85,-0.29
8,-33.45,39.55,30.77,-45.41,33.09,-15.75,52.13,-34.13,-15.85,-0.22
9,-11.69,39.05,14.13,-36.57,25.43,-15.75,52.13,-53.89,-18.85,-1.79
10,4.32,36.18,14.13,-36.57,25.43,-51.02,70.49,-42.86,-25.81,0.28
11,4.32,36.18,-0.55,-40.91,-3.88,-50.08,84.22,41.31,-34.2,0.13
12,16.69,35.61,-0.04,-19.84,-22.09,-42.92,88.32,85.3,-40.86,0.52
13,19.92,34.54,-6.67,-13.6,-25.94,-22.29,99.1,73.58,-45.34,0.52
14,20.93,36.65,-1.1,-3.86,0.12,-4.68,99.1,73.58,-45.34,1.46
15,31.89,28.45,5.83,19.78,0.12,-4.68,98.03,71.97,-46.92,0.21
16,39.18,28.45,5.83,19.78,-17.01,5.32,82.43,80.34,-46.72,1.46
17,39.18,18.41,16.13,48.71,-28.29,31.47,52.43,67.21,-41.86,0.81
18,12.08,22.33,46.9,87.08,-37.8,54.2,23.84,67.21,-41.86,0.81
19,-24.57,22.01,83.35,36.25,-37.8,54.2,23.84,15.33,-33.12,-4.71
20,-35.2,25.67,83.35,36.25,-37.95,81.66,14.1,-14.45,-19.57,0.06
21,-35.2,25.67,78.36,-16.5,11.67,66.52,19.01,-32.43,-8.02,-3.31
22,-43.28,18.02,45.55,-31.26,27.35,35.2,23.86,-47.35,-1.78,0.08
23,-54.83,26.44,22.75,-74.37,30.53,-4.24,47.56,-70.86,-0.24,0.08
24,-33.48,27.57,12.48,-50.16,-8.88,-28.13,68.58,-70.86,-0.24,5.94

