
,aX,aY,aZ,gX,gY,gZ,roll,pitch,yaw,vi
0,0.0,0.0,0.0,0.0,0.0,0.0,0.0,0.0,0.0,0.0
1,18.66,8.99,44.17,-0.64,0.0,0.0,0.0,0.0,0.0,0.0
2,18.66,8.99,44.17,-0.64,8.51,-2.69,12.4,23.12,0.0,0.0
3,17.07,8.99,44.17,-0.64,8.51,-2.69,12.4,23.12,-165.13,0.06
4,17.07,10.0,43.54,0.75,5.39,-2.69,12.4,23.12,-165.13,0.06
5,17.07,10.0,43.54,0.75,5.39,-4.39,12.61,23.45,-165.58,0.06
6,18.48,8.66,43.54,0.75,5.39,-4.39,12.61,23.45,-165.58,0.21
7,18.48,8.66,45.11,4.6,6.23,-5.54,12.61,23.45,-165.58,0.21
8,18.48,8.66,45.11,4.6,6.23,-5.54,11.15,21.11,-166.31,0.12
9,24.01,5.89,44.09,4.6,6.23,-5.54,11.15,21.11,-166.31,0.12
10,24.01,5.89,44.09,4.02,2.21,-6.34,7.83,21.11,-166.31,0.12
11,24.01,5.89,44.09,4.02,2.21,-6.34,7.83,27.21,-167.37,-0.72
12,18.94,6.88,45.08,5.43,2.21,-6.34,7.83,27.21,-167.37,-0.72
13,18.94,6.88,45.08,5.43,2.83,-5.89,8.26,25.8,-167.37,-0.72
14,22.17,6.88,45.08,5.43,2.83,-5.89,8.26,25.8,-168.22,-0.34
15,22.17,5.29,45.99,5.61,2.19,-5.89,8.26,25.8,-168.22,-0.34
16,22.17,5.29,45.99,5.61,2.19,-4.48,6.35,25.11,-168.94,-0.34
17,19.69,6.86,45.99,5.61,2.19,-4.48,6.35,25.11,-168.94,-0.8
18,19.69,6.86,45.5,-0.14,-1.04,-7.01,6.35,25.11,-168.94,-0.8
19,19.69,6.86,45.5,-0.14,-1.04,-7.01,8.74,24.29,-169.8,-0.8
20,28.83,4.06,44.16,-0.14,-1.04,-7.01,8.74,24.29,-169.8,0.07
21,28.83,4.06,44.16,5.13,5.8,-5.77,8.74,24.29,-169.8,0.07
22,28.83,4.06,44.16,5.13,5.8,-5.77,0.89,38.49,-171.19,1.38
23,53.97,-17.71,51.86,-1.72,5.8,-5.77,0.89,38.49,-171.19,1.38
24,53.97,-17.71,51.86,-1.72,10.93,9.63,-28.3,52.19,-171.19,1.38

0,0.0,0.0,0.0,0.0,0.0,0.0,0.0,0.0,0.0,0.0
1,23.86,10.08,42.93,0.0,0.0,0.0,0.0,0.0,0.0,0.0
2,23.86,10.08,42.93,0.56,1.61,-2.16,0.0,0.0,0.0,0.0
3,23.86,10.08,42.93,0.56,1.61,-2.16,13.71,29.08,1.86,-0.25
4,22.38,10.27,41.89,0.56,1.61,-2.16,13.71,29.08,1.86,-0.25
5,22.38,10.27,41.89,-1.22,1.77,-2.39,14.4,29.08,1.86,-0.25
6,22.38,10.27,41.89,-1.22,1.77,-2.39,14.4,28.66,1.55,0.29
7,24.76,10.61,40.12,-1.24,1.77,-2.39,14.4,28.66,1.55,0.29
8,24.76,10.61,40.12,-1.24,1.46,-2.49,14.89,31.26,1.55,0.29
9,25.99,10.61,40.12,-1.24,1.46,-2.49,14.89,31.26,1.1,0.19
10,25.99,9.56,41.5,0.46,3.14,-2.49,14.89,31.26,1.1,0.19
11,25.99,9.56,41.5,0.46,3.14,-1.07,13.23,32.15,0.91,0.19
12,24.99,9.69,41.5,0.46,3.14,-1.07,13.23,32.15,0.91,0.16
13,24.99,9.69,41.96,-0.28,0.99,-1.14,13.23,32.15,0.91,0.16
14,24.99,9.69,41.96,-0.28,0.99,-1.14,13.11,30.84,0.7,0.45
15,25.97,9.53,41.96,-0.28,0.99,-1.14,13.11,30.84,0.7,0.45
16,25.97,9.53,40.85,0.32,0.68,-0.85,13.36,30.84,0.7,0.45
17,25.97,9.53,40.85,0.32,0.68,-0.85,13.36,31.91,0.44,0.05
18,25.48,9.32,40.31,0.82,0.68,-0.85,13.36,31.91,0.44,0.05
19,25.48,9.32,40.31,0.82,-0.22,-2.76,13.32,31.91,0.44,0.05
20,25.48,9.32,40.31,0.82,-0.22,-2.76,13.32,32.71,0.12,0.96
21,23.92,12.53,37.05,6.33,-0.22,-2.76,13.32,32.71,0.12,0.96
22,23.92,12.53,37.05,6.33,0.7,-3.77,18.08,33.02,0.12,0.96
23,45.68,12.53,37.05,6.33,0.7,-3.77,18.08,33.02,-0.46,3.51
24,45.68,-0.06,37.22,16.43,12.87,-3.77,18.08,33.02,-0.46,3.51

0,17.87,10.58,43.55,-5.04,3.19,0.68,14.12,15.3,-36.84,0.24
1,17.87,10.58,43.55,-5.04,3.19,0.68,14.12,21.11,-36.91,0.07
2,14.25,12.62,44.37,-2.49,3.19,0.68,14.12,21.11,-36.91,0.07
3,14.25,12.62,44.37,-2.49,4.26,0.89,15.72,17.91,-36.91,0.07
4,14.34,12.62,44.37,-2.49,4.26,0.89,15.72,17.91,-36.79,0.04
5,14.34,12.23,46.02,-2.57,4.21,0.89,15.72,17.91,-36.79,0.04
6,14.34,12.23,46.02,-2.57,4.21,-1.67,15.06,17.36,-36.79,0.04
7,14.34,12.23,46.02,-2.57,4.21,-1.67,15.06,17.36,-37.0,0.86
8,11.53,14.04,44.09,-1.71,4.21,-1.67,15.06,17.36,-37.0,0.86
9,11.53,14.04,44.09,-1.71,2.33,-4.74,17.74,16.56,-37.6,0.86
10,18.73,14.04,44.09,-1.71,2.33,-4.74,17.74,16.56,-37.6,0.15
11,18.73,13.68,41.6,-0.2,4.47,-6.59,17.74,16.56,-37.6,0.15
12,18.73,13.68,41.6,-0.2,4.47,-6.59,18.2,23.06,-38.55,-0.45
13,15.55,13.32,42.67,-0.2,4.47,-6.59,18.2,23.06,-38.55,-0.45
14,15.55,13.32,42.67,0.86,1.33,-6.63,17.42,20.43,-38.55,-0.45
15,21.47,13.32,42.67,0.86,1.33,-6.63,17.42,20.43,-39.65,0.48
16,21.47,11.77,40.91,4.41,1.33,-6.63,17.42,20.43,-39.65,0.48
17,21.47,11.77,40.91,4.41,4.11,-7.16,15.95,24.83,-39.65,0.48
18,21.47,11.77,40.91,4.41,4.11,-7.16,15.95,24.83,-41.01,-1.27
19,19.91,10.3,40.09,5.15,3.44,-7.16,15.95,24.83,-41.01,-1.27
20,19.91,10.3,40.09,5.15,3.44,-9.32,14.65,26.45,-42.29,-1.27
21,21.62,9.82,40.09,5.15,3.44,-9.32,14.65,26.45,-42.29,0.21
22,21.62,9.82,35.19,8.6,11.85,-16.2,14.65,26.45,-42.29,0.21
23,21.62,9.82,35.19,8.6,11.85,-16.2,12.98,34.71,-44.6,2.28
24,57.51,-17.85,41.8,8.6,11.85,-16.2,12.98,34.71,-44.6,2.28

0,16.73,8.54,46.26,-4.82,2.38,2.45,6.59,24.07,-85.87,0.24
1,16.73,8.54,46.26,-4.82,2.38,2.45,9.98,20.59,-85.77,0.28
2,14.29,10.85,47.31,-4.82,2.38,2.45,9.98,20.59,-85.77,0.28
3,14.29,10.85,47.31,-0.92,-0.86,-0.27,12.74,20.59,-85.77,0.28
4,14.29,10.85,47.31,-0.92,-0.86,-0.27,12.74,16.95,-85.79,-0.22
5,17.09,9.63,46.42,0.04,-0.86,-0.27,12.74,16.95,-85.79,-0.22
6,17.09,9.63,46.42,0.04,3.42,-4.04,12.0,16.95,-85.79,-0.22
7,17.09,9.63,46.42,0.04,3.42,-4.04,12.0,19.64,-86.35,0.01
8,14.63,9.47,44.65,-1.34,3.42,-4.04,12.0,19.64,-86.35,0.01
9,14.63,9.47,44.65,-1.34,2.11,-3.35,10.86,19.33,-86.35,0.01
10,16.03,10.0,44.65,-1.34,2.11,-3.35,10.86,19.33,-86.82,0.07
11,16.03,10.0,46.37,-1.29,1.57,-3.35,10.86,19.33,-86.82,0.07
12,16.03,10.0,46.37,-1.29,1.57,-1.95,11.93,17.95,-87.24,0.07
13,14.66,9.7,46.37,-1.29,1.57,-1.95,11.93,17.95,-87.24,-0.97
14,14.66,9.7,44.04,-1.16,0.99,-7.35,11.93,17.95,-87.24,-0.97
15,14.66,9.7,44.04,-1.16,0.99,-7.35,12.37,17.67,-88.33,0.62
16,14.02,8.85,46.68,-1.16,0.99,-7.35,12.37,17.67,-88.33,0.62
17,14.02,8.85,46.68,1.15,3.45,-9.68,11.37,17.67,-88.33,0.62
18,14.02,8.85,46.68,1.15,3.45,-9.68,11.37,16.94,-89.52,0.4
19,18.18,9.67,45.48,2.27,3.45,-9.68,11.37,16.94,-89.52,0.4
20,18.18,9.67,45.48,2.27,4.59,-8.92,11.6,16.92,-89.52,0.4
21,18.18,9.67,45.48,2.27,4.59,-8.92,11.6,16.92,-91.53,0.1
22,26.36,5.54,45.02,0.25,4.59,-8.92,11.6,16.92,-91.53,0.1
23,26.36,5.54,45.02,0.25,8.33,-20.62,7.85,26.66,-91.53,0.1
24,44.79,5.54,45.02,0.25,8.33,-20.62,7.85,26.66,-94.17,-1.15

0,16.13,10.24,44.97,-1.31,2.54,-8.47,11.87,20.28,-140.26,2.73
1,16.13,10.24,44.97,-1.31,2.54,-8.47,13.11,22.09,-141.82,0.09
2,20.25,8.76,43.58,-3.33,2.54,-8.47,13.11,22.09,-141.82,0.09
3,20.25,8.76,43.58,-3.33,0.67,-8.73,11.54,23.25,-141.82,0.09
4,21.72,8.76,43.58,-3.33,0.67,-8.73,11.54,23.25,-143.29,0.06
5,21.72,6.43,43.64,1.45,0.67,-8.73,11.54,23.25,-143.29,0.06
6,21.72,6.43,43.64,1.45,1.84,-5.4,8.71,26.36,-144.37,0.06
7,25.29,8.59,43.64,1.45,1.84,-5.4,8.71,26.36,-144.37,1.65
8,25.29,8.59,46.65,-9.08,-2.09,-1.65,8.71,26.36,-144.37,1.65
9,25.29,8.59,46.65,-9.08,-2.09,-1.65,9.38,26.56,-144.81,1.65
10,22.87,9.88,46.65,-9.08,-2.09,-1.65,9.38,26.56,-144.81,-3.27
11,22.87,9.88,49.92,-7.48,13.78,0.3,9.38,26.56,-144.81,-3.27
12,22.87,9.88,49.92,-7.48,13.78,0.3,10.73,23.25,-144.87,0.22
13,22.17,9.18,49.92,-7.48,13.78,0.3,10.73,23.25,-144.87,0.22
14,22.17,9.18,41.37,-5.29,1.15,-0.44,10.73,23.25,-144.87,0.22
15,22.17,9.18,41.37,-5.29,1.15,-0.44,14.46,26.23,-145.08,-0.82
16,19.36,10.34,45.93,-5.29,1.15,-0.44,14.46,26.23,-145.08,-0.82
17,19.36,10.34,45.93,3.11,4.39,-7.92,12.34,26.23,-145.08,-0.82
18,19.36,10.34,45.93,3.11,4.39,-7.92,12.34,25.58,-145.98,1.16
19,26.99,6.33,41.81,4.43,4.39,-7.92,12.34,25.58,-145.98,1.16
20,26.99,6.33,41.81,4.43,-0.41,-10.89,7.62,35.22,-145.98,1.16
21,54.98,6.33,41.81,4.43,-0.41,-10.89,7.62,35.22,-147.68,2.88
22,54.98,-20.63,44.09,17.38,1.18,-10.89,7.62,35.22,-147.68,2.88
23,54.98,-20.63,44.09,17.38,1.18,-0.08,-28.45,53.53,-148.46,2.88
24,84.37,-66.07,44.09,17.38,1.18,-0.08,-28.45,53.53,-148.46,0.1

0,17.53,1.28,51.45,4.97,-1.97,-5.65,1.49,17.76,-175.77,-0.95
1,17.53,1.28,51.45,4.97,-1.97,-5.65,1.49,17.76,-176.78,0.03
2,19.48,-0.03,49.74,4.97,-1.97,-5.65,1.49,17.76,-176.78,0.03
3,19.48,-0.03,49.74,4.32,2.55,-4.55,1.31,17.76,-176.78,0.03
4,14.29,-0.03,49.74,4.32,2.55,-4.55,1.31,19.15,-177.67,0.06
5,14.29,2.45,50.13,2.52,0.85,-4.55,1.31,19.15,-177.67,0.06
6,14.29,2.45,50.13,2.52,0.85,-6.41,2.87,15.97,-178.77,0.06
7,13.92,2.19,50.13,2.52,0.85,-6.41,2.87,15.97,-178.77,0.19
8,13.92,2.19,50.09,-0.88,3.18,-6.41,2.87,15.97,-178.77,0.19
9,13.92,2.19,50.09,-0.88,3.18,-5.0,2.12,17.01,-179.74,0.19
10,20.63,-1.0,48.73,-0.88,3.18,-5.0,2.12,17.01,-179.74,-1.07
11,20.63,-1.0,48.73,-1.21,3.67,-7.87,-1.0,17.01,-179.74,-1.07
12,20.63,-1.0,48.73,-1.21,3.67,-7.87,-1.0,23.05,178.78,-2.39
13,15.54,1.7,46.98,-4.21,3.67,-7.87,-1.0,23.05,178.78,-2.39
14,15.54,1.7,46.98,-4.21,-0.11,-1.36,2.28,17.65,178.78,-2.39
15,15.74,1.7,46.98,-4.21,-0.11,-1.36,2.28,17.65,178.51,0.22
16,15.74,2.64,47.63,-1.32,2.59,-1.36,2.28,17.65,178.51,0.22
17,15.74,2.64,47.63,-1.32,2.59,-4.22,3.53,18.18,177.9,0.22
18,16.02,2.78,47.63,-1.32,2.59,-4.22,3.53,18.18,177.9,-0.61
19,16.02,2.78,45.01,-1.15,2.88,-7.31,3.53,18.18,177.9,-0.61
20,16.02,2.78,45.01,-1.15,2.88,-7.31,3.84,18.97,176.66,0.61
21,25.99,-3.58,45.01,-1.15,2.88,-7.31,3.84,18.97,176.66,0.61
22,25.99,-3.58,43.7,3.37,6.67,-16.09,3.84,18.97,176.66,0.61
23,25.99,-3.58,43.7,3.37,6.67,-16.09,-6.17,32.68,174.53,0.16
24,64.7,-34.55,43.3,3.37,6.67,-16.09,-6.17,32.68,174.53,0.16

0,11.28,5.3,49.5,0.9,2.22,-1.5,2.54,20.72,141.91,0.16
1,11.28,5.3,49.5,0.9,2.22,-1.5,5.62,13.1,141.31,1.52
2,13.24,4.9,49.5,0.9,2.22,-1.5,5.62,13.1,141.31,1.52
3,13.24,4.9,48.99,1.19,2.08,-5.35,5.62,13.1,141.31,1.52
4,13.24,4.9,48.99,1.19,2.08,-5.35,5.29,16.44,140.53,0.26
5,13.9,4.23,46.92,1.19,2.08,-5.35,5.29,16.44,140.53,0.26
6,13.9,4.23,46.92,-0.71,0.3,-0.46,4.97,16.44,140.53,0.26
7,13.9,4.23,46.92,-0.71,0.3,-0.46,4.97,17.87,140.37,-0.35
8,9.1,6.52,49.07,-1.23,0.3,-0.46,4.97,17.87,140.37,-0.35
9,9.1,6.52,49.07,-1.23,0.01,0.01,7.51,11.29,140.37,-0.35
10,9.1,6.52,49.07,-1.23,0.01,0.01,7.51,11.29,140.43,1.68
11,15.93,5.2,47.33,-1.53,3.23,0.01,7.51,11.29,140.43,1.68
12,15.93,5.2,47.33,-1.53,3.23,-1.95,6.74,17.75,140.43,1.68
13,11.34,5.2,47.33,-1.53,3.23,-1.95,6.74,17.75,140.1,0.28
14,11.34,5.65,47.07,-1.5,2.21,-1.95,6.74,17.75,140.1,0.28
15,11.34,5.65,47.07,-1.5,2.21,-3.26,6.78,14.72,139.81,0.28
16,11.34,5.65,47.07,-1.5,2.21,-3.26,6.78,14.72,139.81,0.0
17,16.01,6.28,42.7,1.98,2.21,-3.26,6.78,14.72,139.81,0.0
18,16.01,6.28,42.7,1.98,7.77,-0.82,8.1,20.11,139.81,0.0
19,22.59,1.61,42.7,1.98,7.77,-0.82,8.1,20.11,139.61,0.31
20,22.59,1.61,44.04,9.85,15.67,-0.7,8.1,20.11,139.61,0.31
21,22.59,1.61,44.04,9.85,15.67,-0.7,3.33,25.26,139.61,2.17
22,58.37,-28.95,38.49,11.75,15.67,-0.7,3.33,25.26,139.61,2.17
23,58.37,-28.95,38.49,11.75,16.77,8.18,-34.38,55.27,139.61,2.17
24,82.74,-28.95,38.49,11.75,16.77,8.18,-34.38,55.27,140.31,0.21

0,16.67,9.27,47.73,6.25,4.25,-5.3,11.18,19.61,102.21,-0.06
1,20.53,9.27,47.73,6.25,4.25,-5.3,11.18,19.61,101.07,0.04
2,20.53,7.55,45.23,6.53,4.17,-5.3,11.18,19.61,101.07,0.04
3,20.53,7.55,45.23,6.53,4.17,-3.76,9.48,23.2,100.34,0.04
4,20.68,4.27,45.23,6.53,4.17,-3.76,9.48,23.2,100.34,-2.97
5,20.68,4.27,44.45,6.81,3.02,-6.2,9.48,23.2,100.34,-2.97
6,20.68,4.27,44.45,6.81,3.02,-6.2,5.74,24.2,99.49,0.14
7,19.44,3.29,44.45,6.81,3.02,-6.2,5.74,24.2,99.49,0.14
8,19.44,3.29,44.45,6.81,3.02,-6.2,5.74,24.2,98.93,-1.39
9,19.44,3.29,44.45,6.81,3.02,-6.2,5.74,24.2,98.93,-1.39
10,19.49,-0.58,48.23,6.81,3.02,-6.2,5.74,24.2,98.93,-1.39
11,19.49,-0.58,48.23,9.01,-1.52,-6.3,-0.2,24.2,98.93,-1.39
12,19.49,-0.58,48.23,9.01,-1.52,-6.3,-0.2,21.84,98.08,0.96
13,16.1,0.74,48.65,5.54,-1.52,-6.3,-0.2,21.84,98.08,0.96
14,16.1,0.74,48.65,5.54,-2.09,-2.14,0.88,16.98,98.08,0.96
15,18.2,0.74,48.65,5.54,-2.09,-2.14,0.88,16.98,97.63,0.12
16,18.2,1.38,45.64,0.34,-0.68,-2.14,0.88,16.98,97.63,0.12
17,18.2,1.38,45.64,0.34,-0.68,-5.93,1.97,20.65,97.63,0.12
18,30.68,-6.17,45.64,0.34,-0.68,-5.93,1.97,20.65,96.66,0.17
19,30.68,-6.17,50.38,1.62,4.97,-2.43,-6.07,20.65,96.66,0.17
20,30.68,-6.17,50.38,1.62,4.97,-2.43,-6.07,30.55,96.1,1.98
21,64.0,-42.22,50.38,1.62,4.97,-2.43,-6.07,30.55,96.1,1.98
22,64.0,-42.22,59.7,-11.58,-3.34,15.27,-6.07,30.55,96.1,1.98
23,64.0,-42.22,59.7,-11.58,-3.34,15.27,-32.23,44.98,97.97,3.91
24,85.75,-74.26,60.79,-11.58,-3.34,15.27,-32.23,44.98,97.97,3.91

0,0.0,0.0,0.0,0.0,0.0,0.0,0.0,0.0,0.0,0.0
1,15.71,13.5,44.04,0.0,0.0,0.0,0.0,0.0,0.0,0.0
2,15.71,13.5,44.04,-3.97,0.66,4.24,16.91,0.0,0.0,0.0
3,15.71,13.5,44.04,-3.97,0.66,4.24,16.91,18.37,20.74,-0.51
4,13.05,13.74,43.89,-3.01,0.66,4.24,16.91,18.37,20.74,-0.51
5,13.05,13.74,43.89,-3.01,2.26,5.25,17.56,18.37,20.74,-0.51
6,13.05,13.74,43.89,-3.01,2.26,5.25,17.56,17.32,21.64,0.18
7,14.69,13.81,43.63,-0.03,1.55,5.25,17.56,17.32,21.64,0.18
8,14.69,13.81,43.63,-0.03,1.55,4.6,17.92,18.59,22.46,0.18
9,12.44,13.81,43.63,-0.03,1.55,4.6,17.92,18.59,22.46,0.15
10,12.44,14.42,44.81,0.87,2.45,4.6,17.92,18.59,22.46,0.15
11,12.44,14.42,44.81,0.87,2.45,3.11,17.93,15.37,22.99,-0.03
12,13.46,14.18,44.71,0.87,2.45,3.11,17.93,15.37,22.99,-0.03
13,13.46,14.18,44.71,1.2,2.02,-0.48,17.93,15.37,22.99,-0.03
14,13.46,14.18,44.71,1.2,2.02,-0.48,17.63,16.45,22.93,-0.63
15,14.55,13.67,44.18,1.2,2.02,-0.48,17.63,16.45,22.93,-0.63
16,14.55,13.67,44.18,0.45,3.96,-4.03,17.66,16.45,22.93,-0.63
17,14.55,13.67,44.18,0.45,3.96,-4.03,17.66,20.71,22.37,0.13
18,14.6,13.36,43.8,2.08,3.96,-4.03,17.66,20.71,22.37,0.13
19,14.6,13.36,43.8,2.08,3.53,-4.09,17.06,20.71,22.37,0.13
20,14.6,13.36,43.8,2.08,3.53,-4.09,17.06,14.67,21.94,-3.61
21,15.54,12.83,42.21,2.08,3.53,-4.09,17.06,14.67,21.94,-3.61
22,15.54,12.83,42.21,3.05,4.86,-11.47,17.05,14.67,21.94,-3.61
23,17.8,12.83,42.21,3.05,4.86,-11.47,17.05,16.46,19.99,-3.23
24,17.8,12.14,43.95,4.88,5.44,-11.47,17.05,16.46,19.99,-3.23

0,6.96,16.85,44.72,5.43,11.57,-2.77,20.56,9.72,-29.16,0.28
1,2.11,15.98,44.72,5.43,11.57,-2.77,20.56,9.72,-30.25,-1.9
2,2.11,15.98,50.63,-2.95,6.56,-2.77,20.56,9.72,-30.25,-1.9
3,2.11,15.98,50.63,-2.95,6.56,-16.25,17.66,10.2,-30.25,-1.9
4,16.13,15.98,50.63,-2.95,6.56,-16.25,17.66,10.2,-31.86,0.25
5,16.13,12.01,44.47,4.39,5.68,-16.25,17.66,10.2,-31.86,0.25
6,16.13,12.01,44.47,4.39,5.68,-9.39,15.94,19.89,-34.37,0.25
7,14.86,11.17,45.99,4.39,5.68,-9.39,15.94,19.89,-34.37,0.27
8,14.86,11.17,45.99,7.29,5.16,-5.05,15.94,19.89,-34.37,0.27
9,16.09,11.17,45.99,7.29,5.16,-5.05,13.92,18.2,-35.33,0.28
10,16.09,11.06,45.09,1.43,5.16,-5.05,13.92,18.2,-35.33,0.28
11,16.09,11.06,45.09,1.43,6.71,-2.15,13.99,20.11,-35.33,0.28
12,14.83,11.06,45.09,1.43,6.71,-2.15,13.99,20.11,-35.84,1.26
13,14.83,11.76,45.13,2.88,3.14,-2.15,13.99,20.11,-35.84,1.26
14,14.83,11.76,45.13,2.88,3.14,-1.05,14.51,18.13,-36.18,1.26
15,15.2,11.76,45.13,2.88,3.14,-1.05,14.51,18.13,-36.18,0.95
16,15.2,11.74,45.05,3.7,2.06,-1.05,14.51,18.13,-36.18,0.95
17,15.2,11.74,45.05,3.7,2.06,-2.98,14.01,18.19,-36.58,0.95
18,17.78,10.0,45.05,3.7,2.06,-2.98,14.01,18.19,-36.58,0.2
19,17.78,10.0,45.19,1.48,1.63,-1.24,14.01,18.19,-36.58,0.2
20,17.78,10.0,45.19,1.48,1.63,-1.24,12.84,19.36,-36.99,-1.1
21,16.45,11.01,45.19,1.48,1.63,-1.24,12.84,19.36,-36.99,-1.1
22,16.45,11.01,44.51,4.6,0.45,-2.27,12.84,19.36,-36.99,-1.1
23,16.45,11.01,44.51,4.6,0.45,-2.27,13.82,20.69,-37.25,1.25
24,30.49,5.05,42.64,4.6,0.45,-2.27,13.82,20.69,-37.25,1.25

0,11.94,10.74,47.85,2.59,-0.37,-2.5,11.84,15.94,-76.1,0.09
1,11.94,10.74,47.85,2.59,-0.37,-2.5,12.68,15.69,-76.51,1.84
2,12.72,10.7,47.33,2.59,-0.37,-2.5,12.68,15.69,-76.51,1.84
3,12.72,10.7,47.33,2.36,4.03,-4.51,12.98,15.69,-76.51,1.84
4,12.72,10.7,47.33,2.36,4.03,-4.51,12.98,16.36,-77.08,1.58
5,13.11,9.8,47.25,2.36,4.03,-4.51,12.98,16.36,-77.08,1.58
6,13.11,9.8,47.25,1.08,4.33,-2.29,11.14,16.36,-77.08,1.58
7,13.11,9.8,47.25,1.08,4.33,-2.29,11.14,15.88,-77.53,-1.6
8,13.25,9.59,47.07,1.07,4.33,-2.29,11.14,15.88,-77.53,-1.6
9,13.25,9.59,47.07,1.07,2.11,-2.31,11.7,16.24,-77.53,-1.6
10,14.93,9.59,47.07,1.07,2.11,-2.31,11.7,16.24,-77.92,0.91
11,14.93,9.19,45.52,1.3,1.35,-2.31,11.7,16.24,-77.92,0.91
12,14.93,9.19,45.52,1.3,1.35,-0.89,11.19,15.76,-78.19,0.91
13,14.06,9.7,45.52,1.3,1.35,-0.89,11.19,15.76,-78.19,-0.09
14,14.06,9.7,46.25,2.25,1.95,-0.89,11.19,15.76,-78.19,-0.09
15,14.06,9.7,46.25,2.25,1.95,-1.69,11.69,14.74,-78.42,0.31
16,12.36,9.14,46.25,2.25,1.95,-1.69,11.69,14.74,-78.42,0.31
17,12.36,9.14,45.69,3.6,2.65,-4.67,11.69,14.74,-78.42,0.31
18,12.36,9.14,45.69,3.6,2.65,-4.67,11.12,16.31,-79.14,0.31
19,15.24,8.94,45.69,3.6,2.65,-4.67,11.12,16.31,-79.14,0.31
20,15.24,8.94,44.61,3.6,2.65,-4.67,11.12,16.31,-79.14,0.92
21,15.24,8.94,44.61,3.6,2.65,-4.67,11.12,16.31,-79.14,0.92
22,40.31,-3.34,43.98,13.8,2.65,-4.67,11.12,16.31,-79.14,0.92
23,40.31,-3.34,43.98,13.8,13.45,-8.56,-1.58,43.39,-79.14,0.92
24,68.51,-3.34,43.98,13.8,13.45,-8.56,-1.58,43.39,-81.34,4.55

0,15.59,9.33,48.32,10.74,9.67,-20.3,10.85,19.55,-111.69,0.11
1,15.59,9.33,48.32,10.74,9.67,-20.3,10.85,20.49,-115.83,0.06
2,18.34,6.96,50.03,9.84,9.67,-20.3,10.85,20.49,-115.83,0.06
3,18.34,6.96,50.03,9.84,2.66,-14.6,8.11,19.43,-115.83,0.06
4,18.34,6.96,50.03,9.84,2.66,-14.6,8.11,19.43,-118.21,-0.94
5,13.83,8.89,48.84,3.92,2.66,-14.6,8.11,19.43,-118.21,-0.94
6,13.83,8.89,48.84,3.92,1.12,-9.87,10.0,16.52,-118.21,-0.94
7,16.24,8.89,48.84,3.92,1.12,-9.87,10.0,16.52,-120.09,0.44
8,16.24,8.01,48.26,5.82,1.79,-9.87,10.0,16.52,-120.09,0.44
9,16.24,8.01,48.26,5.82,1.79,-7.2,9.49,16.23,-121.41,0.44
10,15.83,6.65,48.26,5.82,1.79,-7.2,9.49,16.23,-121.41,0.23
11,15.83,6.65,47.37,3.65,3.0,-7.31,9.49,16.23,-121.41,0.23
12,15.83,6.65,47.37,3.65,3.0,-7.31,8.04,18.02,-122.75,0.23
13,16.65,5.58,47.37,3.65,3.0,-7.31,8.04,18.02,-122.75,0.23
14,16.65,5.58,46.42,1.03,0.93,-6.68,6.96,18.02,-122.75,0.23
15,16.65,5.58,46.42,1.03,0.93,-6.68,6.96,18.07,-123.88,-0.5
16,16.18,4.87,47.28,2.58,0.93,-6.68,6.96,18.07,-123.88,-0.5
17,16.18,4.87,47.28,2.58,1.39,-3.1,5.99,17.52,-123.88,-0.5
18,16.18,4.87,47.28,2.58,1.39,-3.1,5.99,17.52,-124.43,-1.41
19,14.37,6.6,47.24,0.94,1.39,-3.1,5.99,17.52,-124.43,-1.41
20,14.37,6.6,47.24,0.94,-0.58,-2.88,7.36,18.44,-124.43,-1.41
21,26.5,6.6,47.24,0.94,-0.58,-2.88,7.36,18.44,-124.87,0.12
22,26.5,2.35,46.17,5.87,6.39,-2.88,7.36,18.44,-124.87,0.12
23,26.5,2.35,46.17,5.87,6.39,-0.89,4.0,31.78,-125.12,0.12
24,60.96,2.35,46.17,5.87,6.39,-0.89,4.0,31.78,-125.12,2.82

0,14.36,7.66,48.98,2.92,0.52,-8.84,11.17,13.0,-160.38,0.76
1,14.36,7.66,48.98,2.92,0.52,-7.97,8.93,16.14,-161.89,0.76
2,8.96,7.66,48.98,2.92,0.52,-7.97,8.93,16.14,-161.89,0.4
3,8.96,9.19,48.56,0.46,1.02,-5.42,8.93,16.14,-161.89,0.4
4,8.96,9.19,48.56,0.46,1.02,-5.42,10.38,12.83,-162.6,0.61
5,10.13,7.68,48.09,0.46,1.02,-5.42,10.38,12.83,-162.6,0.61
6,10.13,7.68,48.09,2.91,2.84,-5.44,9.16,12.83,-162.6,0.61
7,10.13,7.68,48.09,2.91,2.84,-5.44,9.16,14.97,-163.56,0.78
8,13.31,6.28,47.85,4.68,2.84,-5.44,9.16,14.97,-163.56,0.78
9,13.31,6.28,47.85,4.68,4.96,-1.8,8.02,15.36,-163.56,0.78
10,13.31,6.28,47.85,4.68,4.96,-1.8,8.02,15.36,-163.95,0.15
11,14.44,4.84,47.48,4.86,4.96,-1.8,8.02,15.36,-163.95,0.15
12,14.44,4.84,47.48,4.86,5.59,-1.55,6.67,16.47,-163.95,0.15
13,12.47,5.38,47.48,4.86,5.59,-1.55,6.67,16.47,-164.23,0.2
14,12.47,5.38,47.84,5.11,3.13,-1.55,6.67,16.47,-164.23,0.2
15,12.47,5.38,47.84,5.11,3.13,0.37,6.67,15.54,-164.26,0.2
16,13.82,4.63,47.84,5.11,3.13,0.37,6.67,15.54,-164.26,0.05
17,13.82,4.63,45.96,2.46,0.67,-0.63,6.67,15.54,-164.26,0.05
18,13.82,4.63,45.96,2.46,0.67,-0.63,5.63,16.2,-164.36,0.05
19,17.45,4.57,45.83,2.46,0.67,-0.63,5.63,16.2,-164.36,-0.4
20,17.45,4.57,45.83,5.87,3.45,-1.59,5.83,16.2,-164.36,-0.4
21,17.45,4.57,45.83,5.87,3.45,-1.59,5.83,22.25,-164.61,1.55
22,33.6,-5.85,48.51,5.87,3.45,-1.59,5.83,22.25,-164.61,1.55
23,33.6,-5.85,48.51,14.16,14.25,2.35,-8.82,22.25,-164.61,1.55
24,33.6,-5.85,48.51,14.16,14.25,2.35,-8.82,36.97,-164.42,0.26

0,21.24,8.45,45.48,-0.58,0.31,-2.16,9.57,20.84,164.74,-1.39
1,21.24,8.45,45.48,-0.58,0.31,-3.26,11.06,20.39,164.11,-1.39
2,18.43,7.02,45.48,-0.58,0.31,-3.26,11.06,20.39,164.11,-2.86
3,18.43,7.02,44.18,1.05,1.25,-5.73,11.06,20.39,164.11,-2.86
4,18.43,7.02,44.18,1.05,1.25,-5.73,9.41,23.77,163.27,0.23
5,17.64,6.99,44.18,1.05,1.25,-5.73,9.41,23.77,163.27,0.23
6,17.64,6.99,45.69,3.6,1.64,-8.47,9.41,23.77,163.27,0.23
7,17.64,6.99,45.69,3.6,1.64,-8.47,8.16,22.57,161.95,0.26
8,19.12,5.2,45.46,3.6,1.64,-8.47,8.16,22.57,161.95,0.26
9,19.12,5.2,45.46,3.84,-0.07,-7.86,6.63,22.45,161.95,0.26
10,19.12,5.2,45.46,3.84,-0.07,-7.86,6.63,22.45,161.0,0.15
11,23.46,2.04,48.04,5.04,-0.07,-7.86,6.63,22.45,161.0,0.15
12,23.46,2.04,48.04,5.04,2.3,-6.04,2.8,25.46,161.0,0.15
13,15.31,2.04,48.04,5.04,2.3,-6.04,2.8,25.46,159.82,-1.01
14,15.31,3.96,48.39,2.56,1.74,-6.04,2.8,25.46,159.82,-1.01
15,15.31,3.96,48.39,2.56,1.74,-2.84,4.42,21.45,159.82,-1.01
16,18.32,3.96,48.39,2.56,1.74,-2.84,4.42,21.45,159.43,0.32
17,18.32,3.09,46.27,0.19,0.24,-2.84,4.42,21.45,159.43,0.32
18,18.32,3.09,46.27,0.19,0.24,-1.16,3.58,21.76,159.03,0.32
19,28.44,3.09,46.27,0.19,0.24,-1.16,3.58,21.76,159.03,0.14
20,28.44,1.68,45.58,2.25,4.54,-4.41,3.58,21.76,159.03,0.14
21,28.44,1.68,45.58,2.25,4.54,-4.41,2.71,33.42,158.43,2.34
22,40.05,-10.18,47.03,2.25,4.54,-4.41,2.71,33.42,158.43,2.34
23,40.05,-10.18,47.03,7.2,11.35,8.0,-15.75,33.42,158.43,2.34
24,40.05,-10.18,47.03,7.2,11.35,8.0,-15.75,44.98,158.99,2.34

0,22.4,7.17,43.95,-9.51,-5.64,-17.52,7.96,28.13,92.64,0.18
1,22.4,7.17,43.95,-9.51,-5.64,-17.52,8.13,28.85,88.96,0.18
2,20.07,9.46,43.95,-9.51,-5.64,-17.52,8.13,28.85,88.96,1.36
3,20.07,9.46,46.04,2.32,3.45,-5.48,8.13,28.85,88.96,1.36
4,20.07,9.46,46.04,2.32,3.45,-5.48,11.18,25.07,87.49,0.6
5,20.68,8.65,45.9,2.32,3.45,-5.48,11.18,25.07,87.49,0.6
6,20.68,8.65,45.9,-0.49,4.49,-8.93,10.83,25.07,87.49,0.6
7,19.73,8.65,45.9,-0.49,4.49,-8.93,10.83,27.16,86.15,0.12
8,19.73,9.28,45.63,1.14,-0.93,-8.93,10.83,27.16,86.15,0.12
9,19.73,9.28,45.63,1.14,-0.93,-3.16,11.17,20.57,85.34,0.12
10,24.85,8.7,45.63,1.14,-0.93,-3.16,11.17,20.57,85.34,0.26
11,24.85,8.7,42.04,-4.96,3.04,-6.62,11.17,20.57,85.34,0.26
12,24.85,8.7,42.04,-4.96,3.04,-6.62,11.6,28.96,84.42,0.26
13,19.73,8.19,42.04,-4.96,3.04,-6.62,11.6,28.96,84.42,-1.33
14,19.73,8.19,44.73,2.99,3.82,-7.23,11.6,28.96,84.42,-1.33
15,19.73,8.19,44.73,2.99,3.82,-7.23,10.72,25.58,83.31,1.78
16,21.21,8.32,41.82,2.99,3.82,-7.23,10.72,25.58,83.31,1.78
17,21.21,8.32,41.82,0.25,-6.14,-10.45,10.69,23.46,83.31,1.78
18,21.21,8.32,41.82,0.25,-6.14,-10.45,10.69,23.46,81.55,-1.25
19,21.09,9.35,42.37,2.47,-6.14,-10.45,10.69,23.46,81.55,-1.25
20,21.09,9.35,42.37,2.47,-6.29,-13.9,11.42,26.73,81.55,-1.25
21,32.37,9.35,42.37,2.47,-6.29,-13.9,11.42,26.73,79.54,0.23
22,32.37,0.49,45.7,8.97,3.02,-13.9,11.42,26.73,79.54,0.23
23,32.37,0.49,45.7,8.97,3.02,-13.63,-0.61,37.23,76.88,0.23
24,54.12,-28.54,45.7,8.97,3.02,-13.63,-0.61,37.23,76.88,2.47

0,15.29,8.87,46.93,12.01,3.68,-6.56,14.46,19.82,31.53,0.07
1,15.29,8.87,46.93,12.01,3.68,-6.56,11.36,13.27,30.14,0.25
2,20.8,11.13,49.79,12.01,3.68,-6.56,11.36,13.27,30.14,0.25
3,20.8,11.13,49.79,6.52,2.98,-7.34,12.76,13.27,30.14,0.25
4,20.8,11.13,49.79,6.52,2.98,-7.34,12.76,21.16,28.93,-3.02
5,16.53,11.76,43.84,6.52,2.98,-7.34,12.76,21.16,28.93,-3.02
6,16.53,11.76,43.84,11.1,3.37,-3.23,13.89,21.16,28.93,-3.02
7,16.53,11.76,43.84,11.1,3.37,-3.23,13.89,22.94,28.22,1.41
8,21.9,5.28,47.79,8.29,3.37,-3.23,13.89,22.94,28.22,1.41
9,21.9,5.28,47.79,8.29,0.68,-1.09,6.53,23.07,27.86,1.41
10,17.22,5.28,47.79,8.29,0.68,-1.09,6.53,23.07,27.86,-3.21
11,17.22,6.32,42.83,3.84,0.68,-1.09,6.53,23.07,27.86,-3.21
12,17.22,6.32,42.83,3.84,3.23,3.88,8.22,21.58,27.86,-3.21
13,15.39,8.15,42.83,3.84,3.23,3.88,8.22,21.58,28.57,1.15
14,15.39,8.15,47.51,0.71,-0.37,5.55,8.22,21.58,28.57,1.15
15,15.39,8.15,47.51,0.71,-0.37,5.55,9.58,16.55,29.43,1.15
16,16.21,8.89,47.51,0.71,-0.37,5.55,9.58,16.55,29.43,1.19
17,16.21,8.89,46.37,4.6,-0.34,0.17,9.58,16.55,29.43,1.19
18,16.21,8.89,46.37,4.6,-0.34,0.17,10.7,19.71,29.47,0.22
19,15.72,8.31,46.27,0.07,-0.34,0.17,10.7,19.71,29.47,0.22
20,15.72,8.31,46.27,0.07,-2.0,-3.99,9.65,20.37,29.29,0.22
21,15.72,8.31,46.27,0.07,-2.0,-3.99,9.65,20.37,29.29,0.26
22,26.93,-1.24,50.49,7.71,-2.0,-3.99,9.65,20.37,29.29,0.26
23,26.93,-1.24,50.49,7.71,5.52,-3.84,0.7,31.0,29.29,0.26
24,98.48,-1.24,50.49,7.71,5.52,-3.84,0.7,31.0,28.66,4.15

0,16.95,9.37,43.75,32.75,6.74,-23.57,17.78,20.08,-18.11,-0.72
1,16.95,9.37,43.75,32.75,6.74,-23.57,11.25,30.59,-20.88,0.1
2,23.01,7.49,47.42,32.75,6.74,-23.57,11.25,30.59,-20.88,0.1
3,23.01,7.49,47.42,21.44,4.17,12.75,9.57,30.59,-20.88,0.1
4,23.01,7.49,47.42,21.44,4.17,12.75,9.57,16.21,-20.87,0.18
5,17.43,5.57,49.86,21.44,4.17,12.75,9.57,16.21,-20.87,0.18
6,17.43,5.57,49.86,1.1,-4.93,-2.17,6.5,16.21,-20.87,0.18
7,17.43,5.57,49.86,1.1,-4.93,-2.17,6.5,19.44,-21.03,-0.53
8,17.87,7.1,46.94,-1.03,-4.93,-2.17,6.5,19.44,-21.03,-0.53
9,17.87,7.1,46.94,-1.03,1.39,-14.67,8.94,22.21,-21.03,-0.53
10,18.99,7.1,46.94,-1.03,1.39,-14.67,8.94,22.21,-23.05,2.23
11,18.99,4.82,46.95,2.05,0.04,-14.67,8.94,22.21,-23.05,2.23
12,18.99,4.82,46.95,2.05,0.04,-3.33,6.53,19.79,-24.06,2.23
13,15.96,4.82,46.95,2.05,0.04,-3.33,6.53,19.79,-24.06,0.21
14,15.96,6.35,46.77,5.46,-1.64,-3.33,6.53,19.79,-24.06,0.21
15,15.96,6.35,46.77,5.46,-1.64,-8.7,6.88,21.67,-25.42,0.21
16,16.59,4.42,46.77,5.46,-1.64,-8.7,6.88,21.67,-25.42,0.11
17,16.59,4.42,47.25,4.47,-1.9,-1.62,6.88,21.67,-25.42,0.11
18,16.59,4.42,47.25,4.47,-1.9,-1.62,5.16,19.91,-25.92,0.55
19,18.09,3.86,47.31,4.47,-1.9,-1.62,5.16,19.91,-25.92,0.55
20,18.09,3.86,47.31,0.67,-1.17,1.8,5.16,19.91,-25.92,0.55
21,18.09,3.86,47.31,0.67,-1.17,1.8,4.78,20.49,-25.91,0.21
22,15.99,5.39,47.64,-0.74,-1.17,1.8,4.78,20.49,-25.91,0.21
23,15.99,5.39,47.64,-0.74,0.16,-0.54,6.0,20.16,-25.91,0.21
24,21.01,5.39,47.64,-0.74,0.16,-0.54,6.0,20.16,-25.73,0.16

0,14.47,13.83,47.41,4.19,-3.86,-11.75,15.09,13.77,-61.69,1.7
1,14.47,13.83,47.41,4.19,1.02,-5.25,16.46,14.02,-61.69,1.7
2,10.53,14.28,47.41,4.19,1.02,-5.25,16.46,14.02,-62.93,-1.94
3,10.53,14.28,48.14,-1.7,0.33,-4.73,16.46,14.02,-62.93,-1.94
4,10.53,14.28,48.14,-1.7,0.33,-4.73,17.29,13.64,-63.48,-1.94
5,12.14,13.57,48.14,-1.7,0.33,-4.73,17.29,13.64,-63.48,0.16
6,12.14,13.57,45.41,2.77,1.32,-4.73,17.29,13.64,-63.48,0.16
7,12.14,13.57,45.41,2.77,1.32,-0.75,17.15,11.1,-63.96,-1.75
8,11.76,13.94,44.12,-1.28,1.32,-0.75,17.15,11.1,-63.96,-1.75
9,11.76,13.94,44.12,-1.28,1.36,-3.19,17.61,14.19,-63.96,-1.75
10,11.76,13.94,44.12,-1.28,1.36,-3.19,17.61,14.19,-64.28,0.16
11,9.01,14.44,45.27,1.33,0.3,-3.19,17.61,14.19,-64.28,0.16
12,9.01,14.44,45.27,1.33,0.3,-4.01,17.81,13.59,-64.28,0.16
13,10.1,14.44,45.27,1.33,0.3,-4.01,17.81,13.59,-64.85,0.12
14,10.1,13.46,46.16,5.5,2.56,-4.01,17.81,13.59,-64.85,0.12
15,10.1,13.46,46.16,5.5,2.56,-4.47,16.38,13.5,-65.61,0.12
16,13.25,11.9,46.16,5.5,2.56,-4.47,16.38,13.5,-65.61,0.16
17,13.25,11.9,45.15,1.69,0.33,-4.47,14.9,13.5,-65.61,0.16
18,13.25,11.9,45.15,1.69,0.33,-4.4,14.9,16.17,-66.27,0.09
19,14.71,12.32,47.0,1.69,0.33,-4.4,14.9,16.17,-66.27,0.09
20,14.71,12.32,47.0,8.4,6.0,-3.23,14.85,16.17,-66.27,0.09
21,14.71,12.32,47.0,8.4,6.0,-3.23,14.85,18.79,-66.87,1.78
22,23.32,6.5,49.15,10.57,6.0,-3.23,14.85,18.79,-66.87,1.78
23,23.32,6.5,49.15,10.57,9.32,-1.31,6.03,27.13,-66.87,1.78
24,48.85,6.5,49.15,10.57,9.32,-1.31,6.03,27.13,-67.22,0.76

0,19.24,15.76,41.82,0.48,-2.66,-14.14,20.68,21.95,-104.59,3.02
1,19.24,15.76,41.82,0.48,-2.66,-14.14,20.49,22.78,-107.17,0.79
2,19.38,15.31,41.82,0.48,-2.66,-14.14,20.49,22.78,-107.17,0.79
3,19.38,15.31,43.36,2.77,0.13,-8.69,19.25,22.78,-107.17,0.79
4,19.38,15.31,43.36,2.77,0.13,-8.69,19.25,24.25,-108.8,0.19
5,16.78,15.68,43.42,-4.4,0.13,-8.69,19.25,24.25,-108.8,0.19
6,16.78,15.68,43.42,-4.4,-2.53,-3.77,20.32,24.25,-108.8,0.19
7,18.55,15.68,43.42,-4.4,-2.53,-3.77,20.32,18.02,-109.55,0.28
8,18.55,14.99,41.97,2.07,3.44,-3.77,20.32,18.02,-109.55,0.28
9,18.55,14.99,41.97,2.07,3.44,-7.61,19.81,23.61,-109.55,0.28
10,10.21,14.99,41.97,2.07,3.44,-7.61,19.81,23.61,-110.59,-0.25
11,10.21,15.16,39.7,6.65,4.77,-7.61,19.81,23.61,-110.59,-0.25
12,10.21,15.16,39.7,6.65,4.77,-22.92,20.12,24.55,-112.91,-0.25
13,24.69,13.55,39.7,6.65,4.77,-22.92,20.12,24.55,-112.91,0.13
14,24.69,13.55,39.36,16.26,11.28,-15.48,20.12,24.55,-112.91,0.13
15,24.69,13.55,39.36,16.26,11.28,-15.48,15.22,28.86,-116.0,0.0
16,26.72,5.28,43.66,16.26,11.28,-15.48,15.22,28.86,-116.0,0.0
17,26.72,5.28,43.66,16.07,9.96,-5.76,15.22,28.86,-116.0,0.0
18,26.72,5.28,43.66,16.07,9.96,-5.76,8.06,27.62,-116.98,-4.2
19,29.24,1.91,49.06,10.35,9.96,-5.76,8.06,27.62,-116.98,-4.2
20,29.24,1.91,49.06,10.35,6.81,-5.18,3.35,32.23,-116.98,-4.2
21,29.24,1.91,49.06,10.35,6.81,-5.18,3.35,32.23,-117.65,1.48
22,43.01,-6.11,45.98,2.97,6.81,-5.18,3.35,32.23,-117.65,1.48
23,43.01,-6.11,45.98,2.97,1.84,13.7,-9.58,46.95,-117.65,1.48
24,99.99,-6.11,45.98,2.97,1.84,13.7,-9.58,46.95,-116.79,0.05

0,15.4,15.37,46.79,6.69,11.77,-26.46,22.39,18.58,-157.25,0.16
1,15.4,15.37,46.79,6.69,4.92,-17.55,18.99,21.2,-157.25,0.16
2,18.75,15.37,46.79,6.69,4.92,-17.55,18.99,21.2,-160.79,1.61
3,18.75,16.61,43.18,7.64,3.11,-16.19,18.99,21.2,-160.79,1.61
4,18.75,16.61,43.18,7.64,3.11,-16.19,20.66,15.41,-163.54,1.61
5,13.92,14.79,47.7,7.64,3.11,-16.19,20.66,15.41,-163.54,-2.17
6,13.92,14.79,47.7,11.76,4.03,-6.22,20.66,15.41,-163.54,-2.17
7,13.92,14.79,47.7,11.76,4.03,-6.22,17.87,14.95,-164.96,0.28
8,13.69,13.14,46.51,11.76,4.03,-6.22,17.87,14.95,-164.96,0.28
9,13.69,13.14,46.51,7.95,6.33,-6.16,15.61,14.95,-164.96,0.28
10,13.69,13.14,46.51,7.95,6.33,-6.16,15.61,16.52,-165.9,0.29
11,15.12,11.87,47.09,8.29,6.33,-6.16,15.61,16.52,-165.9,0.29
12,15.12,11.87,47.09,8.29,6.46,-6.11,14.35,16.38,-165.9,0.29
13,13.38,11.87,47.09,8.29,6.46,-6.11,14.35,16.38,-166.76,-1.7
14,13.38,10.66,45.74,6.16,6.46,-6.11,14.35,16.38,-166.76,-1.7
15,13.38,10.66,45.74,6.16,5.05,-7.78,13.42,18.0,-166.76,-1.7
16,12.8,10.66,45.74,6.16,5.05,-7.78,13.42,18.0,-167.88,1.52
17,12.8,7.88,46.41,10.71,5.27,-7.78,13.42,18.0,-167.88,1.52
18,12.8,7.88,46.41,10.71,5.27,-8.92,10.06,18.5,-169.49,1.52
19,16.87,7.53,46.41,10.71,5.27,-8.92,10.06,18.5,-169.49,0.56
20,16.87,7.53,44.26,12.05,2.58,-11.54,10.06,18.5,-169.49,0.56
21,16.87,7.53,44.26,12.05,2.58,-11.54,8.55,25.08,-171.21,2.28
22,31.27,-3.37,48.54,12.05,2.58,-11.54,8.55,25.08,-171.21,2.28
23,31.27,-3.37,48.54,13.6,8.9,-8.47,-4.39,25.08,-171.21,2.28
24,48.29,-3.37,48.54,13.6,8.9,-8.47,-4.39,36.76,-172.83,2.12

0,15.39,7.49,45.26,-0.67,-6.88,-29.74,9.35,19.33,157.75,-1.77
1,15.39,7.49,45.26,-0.67,-6.88,-29.74,9.35,17.59,152.63,0.3
2,17.85,7.86,47.65,-0.67,-6.88,-29.74,9.35,17.59,152.63,0.3
3,17.85,7.86,47.65,3.67,1.29,-20.68,10.01,17.59,152.63,0.3
4,17.85,7.86,47.65,3.67,1.29,-20.68,10.01,21.31,148.4,0.23
5,24.95,10.11,46.79,-7.31,1.29,-20.68,10.01,21.31,148.4,0.23
6,24.95,10.11,46.79,-7.31,19.63,-12.1,11.84,20.27,148.4,0.23
7,18.21,10.11,46.79,-7.31,19.63,-12.1,11.84,20.27,145.93,0.31
8,18.21,9.99,46.86,2.25,3.28,-12.1,11.84,20.27,145.93,0.31
9,18.21,9.99,46.86,2.25,3.28,-8.23,11.96,21.14,144.75,0.31
10,18.2,9.99,46.86,2.25,3.28,-8.23,11.96,21.14,144.75,-0.39
11,18.2,10.44,44.64,2.88,1.62,-7.97,11.96,21.14,144.75,-0.39
12,18.2,10.44,44.64,2.88,1.62,-7.97,13.24,22.28,143.58,-0.39
13,14.05,12.71,44.64,2.88,1.62,-7.97,13.24,22.28,143.58,0.9
14,14.05,12.71,45.99,4.11,-1.97,-7.97,13.24,22.28,143.58,0.9
15,14.05,12.71,45.99,4.11,-1.97,-7.06,14.1,17.56,142.63,0.9
16,17.36,9.96,45.99,4.11,-1.97,-7.06,14.1,17.56,142.63,0.43
17,17.36,9.96,46.77,1.4,-3.06,-7.06,14.1,17.56,142.63,0.43
18,17.36,9.96,46.77,1.4,-3.06,-7.84,12.28,19.29,141.21,0.43
19,14.2,9.43,45.96,1.4,-3.06,-7.84,12.28,19.29,141.21,-1.25
20,14.2,9.43,45.96,-0.62,4.46,-6.13,11.58,19.29,141.21,-1.25
21,14.2,9.43,45.96,-0.62,4.46,-6.13,11.58,18.87,140.14,1.3
22,17.37,9.7,44.92,1.07,4.46,-6.13,11.58,18.87,140.14,1.3
23,17.37,9.7,44.92,1.07,-0.49,-6.1,12.59,19.25,140.14,1.3
24,17.37,9.7,44.92,1.07,-0.49,-6.1,12.59,19.25,139.1,0.14

0,14.94,14.53,50.2,11.88,0.32,-29.73,17.08,25.96,94.21,-2.15
1,14.94,14.53,50.2,11.88,0.32,-14.44,16.22,16.75,91.41,-0.57
2,21.04,14.53,50.2,11.88,0.32,-14.44,16.22,16.75,91.41,-0.57
3,21.04,12.55,44.21,4.66,2.01,-14.44,16.22,16.75,91.41,-0.57
4,21.04,12.55,44.21,4.66,2.01,-8.74,16.38,24.07,89.73,-0.57
5,15.49,14.38,44.21,4.66,2.01,-8.74,16.38,24.07,89.73,0.06
6,15.49,14.38,46.96,7.47,5.93,-4.78,16.38,24.07,89.73,0.06
7,15.49,14.38,46.96,7.47,5.93,-4.78,17.06,17.79,88.89,-1.27
8,13.94,14.43,46.96,7.47,5.93,-4.78,17.06,17.79,88.89,-1.27
9,13.94,14.43,46.54,3.49,3.65,-3.15,17.06,17.79,88.89,-1.27
10,13.94,14.43,46.54,3.49,3.65,-3.15,17.17,16.56,88.25,1.18
11,17.06,12.33,44.73,3.49,3.65,-3.15,17.17,16.56,88.25,1.18
12,17.06,12.33,44.73,-1.93,-0.78,-6.02,15.78,16.56,88.25,1.18
13,17.06,12.33,44.73,-1.93,-0.78,-6.02,15.78,19.51,87.38,0.1
14,15.19,12.27,43.54,-1.93,-0.78,-6.02,15.78,19.51,87.38,0.1
15,15.19,12.27,43.54,2.38,0.9,-2.84,15.66,19.51,87.38,0.1
16,15.19,12.27,43.54,2.38,0.9,-2.84,15.66,18.71,86.74,0.31
17,19.86,9.3,43.9,4.36,0.9,-2.84,15.66,18.71,86.74,0.31
18,19.86,9.3,43.9,4.36,3.44,-2.86,12.53,24.6,86.25,0.31
19,16.45,9.3,43.9,4.36,3.44,-2.86,12.53,24.6,86.25,0.67
20,16.45,10.58,45.63,-0.05,-0.13,-2.86,12.53,24.6,86.25,0.67
21,16.45,10.58,45.63,-0.05,-0.13,-0.97,13.13,21.26,86.17,0.67
22,16.45,10.58,45.63,-0.05,-0.13,-0.97,13.13,21.26,86.17,1.74
23,24.62,8.56,45.79,2.68,-0.13,-0.97,13.13,21.26,86.17,1.74
24,24.62,8.56,45.79,2.68,-0.13,-0.97,13.13,21.26,86.17,1.74

0,7.16,10.73,49.55,4.76,5.73,-32.88,26.37,19.97,49.12,-0.68
1,7.16,10.73,49.55,4.76,5.73,-16.89,15.46,14.97,49.12,-0.68
2,13.05,16.06,49.55,4.76,5.73,-16.89,15.46,14.97,46.05,2.85
3,13.05,16.06,46.08,7.29,0.72,-12.11,15.46,14.97,46.05,2.85
4,13.05,16.06,46.08,7.29,0.72,-12.11,19.52,15.23,43.82,2.85
5,12.02,15.85,46.63,7.29,0.72,-12.11,19.52,15.23,43.82,-1.02
6,12.02,15.85,46.63,11.67,1.66,-5.49,18.39,15.23,43.82,-1.02
7,12.02,15.85,46.63,11.67,1.66,-5.49,18.39,11.96,42.76,0.0
8,12.34,14.32,47.14,3.82,1.66,-5.49,18.39,11.96,42.76,0.0
9,12.34,14.32,47.14,3.82,-2.58,-3.74,17.04,13.0,42.76,0.0
10,9.3,14.32,47.14,3.82,-2.58,-3.74,17.04,13.0,41.89,0.09
11,9.3,14.12,47.74,6.68,1.9,-3.74,17.04,13.0,41.89,0.09
12,9.3,14.12,47.74,6.68,1.9,-4.45,16.77,11.51,41.16,0.09
13,11.11,12.46,47.74,6.68,1.9,-4.45,16.77,11.51,41.16,0.25
14,11.11,12.46,47.96,2.31,-0.36,-1.98,16.77,11.51,41.16,0.25
15,11.11,12.46,47.96,2.31,-0.36,-1.98,14.77,12.9,40.74,-0.03
16,10.48,12.91,47.96,2.31,-0.36,-1.98,14.77,12.9,40.74,-0.03
17,10.48,12.91,47.36,-3.17,0.35,-1.5,14.77,12.9,40.74,-0.03
18,10.48,12.91,47.36,-3.17,0.35,-1.5,15.49,11.84,40.59,0.1
19,9.3,14.51,46.25,-3.17,0.35,-1.5,15.49,11.84,40.59,0.1
20,9.3,14.51,46.25,0.23,-0.52,-2.05,17.24,12.26,40.59,0.1
21,10.02,14.51,46.25,0.23,-0.52,-2.05,17.24,12.26,40.34,-0.09
22,10.02,13.98,46.29,4.68,3.92,-2.05,17.24,12.26,40.34,-0.09
23,10.02,13.98,46.29,4.68,3.92,-3.58,16.25,18.35,40.34,-0.09
24,26.81,3.09,46.29,4.68,3.92,-3.58,16.25,18.35,39.87,2.24

0,17.26,6.85,51.6,-6.01,6.68,-31.36,6.8,13.07,10.24,3.95
1,17.26,6.85,51.6,-6.01,6.68,-31.36,7.31,19.69,2.91,2.27
2,11.58,7.55,43.28,-1.29,6.68,-31.36,7.31,19.69,2.91,2.27
3,11.58,7.55,43.28,-1.29,-11.93,-31.64,9.04,16.81,2.91,2.27
4,11.58,7.55,43.28,-1.29,-11.93,-31.64,9.04,16.81,-1.97,1.2
5,16.48,11.2,45.23,0.4,-11.93,-31.64,9.04,16.81,-1.97,1.2
6,16.48,11.2,45.23,0.4,-1.22,-12.87,12.85,18.59,-1.97,1.2
7,16.48,11.2,45.23,0.4,-1.22,-12.87,12.85,18.59,-5.27,0.28
8,8.38,13.33,48.99,1.75,-1.22,-12.87,12.85,18.59,-5.27,0.28
9,8.38,13.33,48.99,1.75,0.74,-8.15,15.52,11.83,-5.27,0.28
10,14.88,13.33,48.99,1.75,0.74,-8.15,15.52,11.83,-6.96,3.03
11,14.88,11.62,49.54,8.22,2.12,-8.15,15.52,11.83,-6.96,3.03
12,14.88,11.62,49.54,8.22,2.12,-9.56,13.58,15.26,-8.42,3.03
13,9.01,13.4,49.54,8.22,2.12,-9.56,13.58,15.26,-8.42,-1.92
14,9.01,13.4,46.39,2.38,3.03,-9.56,15.77,15.26,-8.42,-1.92
15,9.01,13.4,46.39,2.38,3.03,-7.58,15.77,12.52,-9.48,0.15
16,14.04,12.22,47.27,2.38,3.03,-7.58,15.77,12.52,-9.48,0.15
17,14.04,12.22,47.27,1.25,0.49,-6.97,14.52,12.52,-9.48,0.15
18,14.04,12.22,47.27,1.25,0.49,-6.97,14.52,14.13,-10.78,0.21
19,12.15,12.05,46.34,1.25,0.49,-6.97,14.52,14.13,-10.78,0.21
20,12.15,12.05,46.34,0.82,-0.49,-5.95,14.52,14.13,-10.78,0.21
21,12.15,12.05,46.34,0.82,-0.49,-5.95,14.52,14.02,-11.56,-0.13
22,10.82,12.17,48.01,1.93,-0.49,-5.95,14.52,14.02,-11.56,-0.13
23,10.82,12.17,48.01,1.93,-0.64,-3.36,14.42,12.21,-11.56,-0.13
24,15.52,12.17,48.01,1.93,-0.64,-3.36,14.42,12.21,-12.28,-0.72

0,9.17,14.2,47.35,10.72,0.99,-26.33,15.13,10.53,-35.48,2.81
1,9.17,14.2,47.35,10.72,0.99,-26.33,16.05,8.98,-40.4,-1.31
2,16.69,11.32,46.15,10.72,0.99,-26.33,16.05,8.98,-40.4,-1.31
3,16.69,11.32,46.15,3.97,0.01,-21.77,13.74,8.98,-40.4,-1.31
4,16.69,11.32,46.15,3.97,0.01,-21.77,13.74,15.83,-44.05,0.21
5,10.24,12.37,45.97,3.97,0.01,-21.77,13.74,15.83,-44.05,0.21
6,10.24,12.37,45.97,6.41,6.75,-11.8,14.76,15.83,-44.05,0.21
7,8.86,12.37,45.97,6.41,6.75,-11.8,14.76,13.1,-46.54,0.07
8,8.86,12.07,49.0,2.86,6.75,-11.8,14.76,13.1,-46.54,0.07
9,8.86,12.07,49.0,2.86,-0.75,-12.61,13.88,10.03,-46.54,0.07
10,8.69,12.07,49.0,2.86,-0.75,-12.61,13.88,10.03,-48.33,-0.04
11,8.69,12.93,46.76,4.24,0.17,-12.61,13.88,10.03,-48.33,-0.04
12,8.69,12.93,46.76,4.24,0.17,-11.46,15.71,11.34,-50.32,-0.04
13,6.95,12.69,46.76,4.24,0.17,-11.46,15.71,11.34,-50.32,1.13
14,6.95,12.69,47.93,7.8,1.24,-9.64,15.71,11.34,-50.32,1.13
15,6.95,12.69,47.93,7.8,1.24,-9.64,13.55,10.45,-51.99,0.62
16,10.11,11.57,47.93,7.8,1.24,-9.64,13.55,10.45,-51.99,0.62
17,10.11,11.57,46.72,6.69,2.69,-9.64,13.55,10.45,-51.99,0.62
18,10.11,11.57,46.72,6.69,2.69,-8.73,13.1,12.63,-53.11,1.27
19,8.83,10.66,46.72,6.69,2.69,-8.73,13.1,12.63,-53.11,1.27
20,8.83,10.66,46.64,3.83,1.97,-9.98,13.1,12.63,-53.11,1.27
21,8.83,10.66,46.64,3.83,1.97,-9.98,12.8,14.2,-54.64,1.27
22,12.16,8.53,45.08,3.83,1.97,-9.98,12.8,14.2,-54.64,1.42
23,12.16,8.53,45.08,10.34,4.52,-10.43,9.17,14.2,-54.64,1.42
24,12.16,8.53,45.08,10.34,4.52,-10.43,9.17,19.25,-56.09,0.19

0,11.0,12.38,49.91,8.19,3.05,-13.36,14.08,12.0,-104.64,0.19
1,11.0,12.38,49.91,8.19,3.05,-13.36,14.08,12.0,-107.03,0.15
2,8.12,12.83,48.6,0.7,3.05,-13.36,14.08,12.0,-107.03,0.15
3,8.12,12.83,48.6,0.7,3.09,-7.02,14.65,9.13,-107.03,0.15
4,8.12,12.83,48.6,0.7,3.09,-7.02,14.65,9.13,-108.12,-0.2
5,8.08,13.76,45.04,2.74,3.09,-7.02,14.65,9.13,-108.12,-0.2
6,8.08,13.76,45.04,2.74,1.05,-2.98,16.63,9.91,-108.12,-0.2
7,7.27,13.37,45.04,2.74,1.05,-2.98,16.63,9.91,-109.05,0.28
8,7.27,13.37,47.87,3.85,1.12,-2.88,16.63,9.91,-109.05,0.28
9,7.27,13.37,47.87,3.85,1.12,-2.88,15.47,8.76,-109.49,0.31
10,8.61,11.57,46.81,3.85,1.12,-2.88,15.47,8.76,-109.49,0.31
11,8.61,11.57,46.81,5.55,3.4,-1.12,14.28,8.76,-109.49,0.31
12,8.61,11.57,46.81,5.55,3.4,-1.12,14.28,8.88,-109.8,-1.32
13,8.11,10.65,49.16,4.39,3.4,-1.12,14.28,8.88,-109.8,-1.32
14,8.11,10.65,49.16,4.39,3.96,-3.01,12.54,11.43,-109.8,-1.32
15,9.89,10.65,49.16,4.39,3.96,-3.01,12.54,11.43,-110.2,0.05
16,9.89,9.38,47.51,0.7,3.96,-3.01,12.54,11.43,-110.2,0.05
17,9.89,9.38,47.51,0.7,0.25,0.28,11.66,10.35,-110.31,0.05
18,9.89,9.38,47.51,0.7,0.25,0.28,11.66,10.35,-110.31,0.24
19,12.19,9.45,46.99,2.25,0.25,0.28,11.66,10.35,-110.31,0.24
20,12.19,9.45,46.99,2.25,2.26,-0.23,10.93,14.9,-110.31,0.24
21,23.16,-0.37,46.99,2.25,2.26,-0.23,10.93,14.9,-110.31,0.22
22,23.16,-0.37,51.16,7.25,7.48,4.44,10.93,14.9,-110.31,0.22
23,23.16,-0.37,51.16,7.25,7.48,4.44,1.25,26.71,-109.81,2.84
24,70.98,-42.1,63.79,7.25,7.48,4.44,1.25,26.71,-109.81,2.84

0,16.76,15.05,46.84,7.44,1.74,-17.6,20.21,19.16,-146.3,0.97
1,16.76,15.05,46.84,7.44,1.74,-17.6,17.9,19.19,-149.67,0.97
2,14.93,16.53,45.72,7.44,1.74,-17.6,17.9,19.19,-149.67,0.25
3,14.93,16.53,45.72,3.72,-1.08,-12.93,19.09,19.19,-149.67,0.25
4,14.93,16.53,45.72,3.72,-1.08,-12.93,19.09,18.92,-152.12,0.22
5,14.95,16.23,45.07,6.06,-1.08,-12.93,19.09,18.92,-152.12,0.22
6,14.95,16.23,45.07,6.06,1.74,-4.72,19.67,14.25,-152.12,0.22
7,14.95,16.23,45.07,6.06,1.74,-4.72,19.67,14.25,-153.24,0.25
8,15.44,16.89,43.65,0.03,1.72,-4.72,19.67,14.25,-153.24,0.25
9,15.44,16.89,43.65,0.03,1.72,-6.29,21.12,16.46,-153.24,0.25
10,9.63,16.89,43.65,0.03,1.72,-6.29,21.12,16.46,-153.92,-1.61
11,9.63,17.86,44.74,0.77,-0.92,-6.29,21.12,16.46,-153.92,-1.61
12,9.63,17.86,44.74,0.77,-0.92,-2.22,21.49,12.84,-154.3,-1.61
13,9.47,18.02,44.74,0.77,-0.92,-2.22,21.49,12.84,-154.3,0.8
14,9.47,18.02,44.45,2.68,1.34,-2.22,21.49,12.84,-154.3,0.8
15,9.47,18.02,44.45,2.68,1.34,-0.99,22.36,10.81,-154.56,0.06
16,10.96,17.32,43.98,2.68,1.34,-0.99,22.36,10.81,-154.56,0.06
17,10.96,17.32,43.98,2.92,2.93,-4.24,21.25,10.81,-154.56,0.06
18,9.27,17.32,43.98,2.92,2.93,-4.24,21.25,13.95,-155.18,1.47
19,9.27,17.91,43.93,0.57,2.93,-4.24,21.25,13.95,-155.18,1.47
20,9.27,17.91,43.93,0.57,5.63,-2.49,21.98,22.09,-156.1,1.47
21,33.88,17.91,43.93,0.57,5.63,-2.49,21.98,22.09,-156.1,10.89
22,33.88,4.92,45.69,17.56,20.35,-2.49,21.98,22.09,-156.1,10.89
23,33.88,4.92,45.69,17.56,20.35,3.05,4.92,39.83,-157.12,10.89
24,65.87,4.92,45.69,17.56,20.35,3.05,4.92,39.83,-157.12,0.14

0,12.71,12.47,49.89,16.7,1.8,-38.99,8.87,17.97,168.13,0.06
1,12.71,12.47,49.89,16.7,1.8,-38.99,11.35,19.01,160.51,0.06
2,19.67,8.04,49.89,16.7,1.8,-38.99,11.35,19.01,160.51,0.3
3,19.67,8.04,52.93,10.27,-2.19,-26.7,11.35,19.01,160.51,0.3
4,19.67,8.04,52.93,10.27,-2.19,-26.7,8.51,20.39,155.99,-1.57
5,14.16,11.17,49.23,8.15,-2.19,-26.7,8.51,20.39,155.99,-1.57
6,14.16,11.17,49.23,8.15,-2.86,-16.41,12.79,19.26,155.99,-1.57
7,13.59,11.54,49.23,8.15,-2.86,-16.41,12.79,19.26,152.97,5.06
8,13.59,11.54,48.79,1.41,-0.52,-16.41,12.79,19.26,152.97,5.06
9,13.59,11.54,48.79,1.41,-0.52,-8.06,13.52,13.41,151.29,5.06
10,13.26,12.0,48.79,1.41,-0.52,-8.06,13.52,13.41,151.29,0.25
11,13.26,12.0,48.72,-1.03,1.02,-8.06,13.52,13.41,151.29,0.25
12,13.26,12.0,48.72,-1.03,1.02,-7.53,14.39,15.31,150.04,0.25
13,11.4,12.54,48.72,-1.03,1.02,-7.53,14.39,15.31,150.04,-0.23
14,11.4,12.54,45.87,-2.0,-1.05,-7.53,15.28,15.31,150.04,-0.23
15,11.4,12.54,45.87,-2.0,-1.05,-4.68,15.28,13.07,149.21,-0.51
16,12.87,13.56,45.65,-2.0,-1.05,-4.68,15.28,13.07,149.21,-0.51
17,12.87,13.56,45.65,0.25,0.64,-6.43,16.35,13.07,149.21,-0.51
18,12.87,13.56,45.65,0.25,0.64,-6.43,16.35,14.23,148.49,-1.04
19,12.07,14.08,45.91,2.0,0.64,-6.43,16.35,14.23,148.49,-1.04
20,12.07,14.08,45.91,2.0,3.05,-2.58,17.13,16.58,148.49,-1.04
21,25.91,14.08,45.91,2.0,3.05,-2.58,17.13,16.58,148.21,0.17
22,25.91,4.87,47.79,11.05,3.05,-2.58,17.13,16.58,148.21,0.17
23,25.91,4.87,47.79,11.05,12.12,6.32,8.2,31.91,149.07,0.17
24,43.95,4.87,47.79,11.05,12.12,6.32,8.2,31.91,149.07,0.03

0,7.5,16.08,45.2,3.8,2.52,-6.86,19.63,12.2,126.36,-0.64
1,7.5,16.08,45.2,3.8,2.52,-6.86,19.63,9.03,125.38,-0.48
2,2.76,17.3,48.28,-1.55,2.52,-6.86,19.63,9.03,125.38,-0.48
3,2.76,17.3,48.28,-1.55,3.68,-8.04,18.33,6.33,125.38,-0.48
4,4.63,17.3,48.28,-1.55,3.68,-8.04,18.33,6.33,124.23,0.25
5,4.63,14.65,44.97,4.5,5.56,-8.04,18.33,6.33,124.23,0.25
6,4.63,14.65,44.97,4.5,5.56,-6.34,18.36,7.49,123.11,0.25
7,8.89,14.65,44.97,4.5,5.56,-6.34,18.36,7.49,123.11,2.14
8,8.89,14.05,47.48,3.48,3.94,-11.69,18.36,7.49,123.11,2.14
9,8.89,14.05,47.48,3.48,3.94,-11.69,17.08,10.77,121.33,0.18
10,9.18,13.89,46.73,3.48,3.94,-11.69,17.08,10.77,121.33,0.18
11,9.18,13.89,46.73,3.99,4.14,-11.86,17.08,10.77,121.33,0.18
12,9.18,13.89,46.73,3.99,4.14,-11.86,16.67,11.28,119.29,0.18
13,10.99,12.0,49.58,3.99,4.14,-11.86,16.67,11.28,119.29,-0.65
14,10.99,12.0,49.58,0.86,1.69,-13.93,14.06,11.28,119.29,-0.65
15,10.99,12.0,49.58,0.86,1.69,-13.93,14.06,10.54,117.16,0.3
16,8.3,13.05,47.78,0.86,1.69,-13.93,14.06,10.54,117.16,0.3
17,8.3,13.05,47.78,0.53,5.06,-22.99,14.61,10.54,117.16,0.3
18,8.3,13.05,47.78,0.53,5.06,-22.99,14.61,17.14,113.84,4.65
19,19.33,9.34,46.0,-0.29,5.06,-22.99,14.61,17.14,113.84,4.65
20,19.33,9.34,46.0,-0.29,5.23,-18.24,11.64,19.32,113.84,4.65
21,28.66,9.34,46.0,-0.29,5.23,-18.24,11.64,19.32,110.74,-3.73
22,28.66,0.92,44.17,4.6,9.6,-18.24,11.64,19.32,110.74,-3.73
23,28.66,0.92,44.17,4.6,9.6,-12.16,0.67,35.07,108.03,-3.73
24,51.25,-20.92,45.77,4.6,9.6,-12.16,0.67,35.07,108.03,0.31

0,9.55,3.38,55.0,14.8,-8.63,-29.78,0.38,23.39,103.72,0.15
1,9.55,3.38,55.0,14.8,-8.63,-29.78,2.64,16.61,97.45,0.06
2,11.27,11.07,50.58,14.8,-8.63,-29.78,2.64,16.61,97.45,0.06
3,11.27,11.07,50.58,4.09,3.58,-21.91,11.3,11.49,97.45,0.06
4,9.58,11.07,50.58,4.09,3.58,-21.91,11.3,11.49,93.66,-2.03
5,9.58,12.16,52.86,4.03,3.64,-21.91,11.3,11.49,93.66,-2.03
6,9.58,12.16,52.86,4.03,3.64,-12.84,12.99,11.2,91.33,-2.03
7,9.58,12.16,52.86,4.03,3.64,-12.84,12.99,11.2,91.33,1.45
8,6.69,14.87,48.81,0.67,-0.19,-12.84,12.99,11.2,91.33,1.45
9,6.69,14.87,48.81,0.67,-0.19,-5.66,17.29,8.11,90.15,1.45
10,4.32,15.64,48.81,0.67,-0.19,-5.66,17.29,8.11,90.15,1.06
11,4.32,15.64,48.83,4.31,2.33,-4.93,17.29,8.11,90.15,1.06
12,4.32,15.64,48.83,4.31,2.33,-4.93,17.67,8.23,89.09,2.03
13,5.72,14.26,46.51,4.31,2.33,-4.93,17.67,8.23,89.09,2.03
14,5.72,14.26,46.51,1.83,-0.59,-3.25,17.22,8.23,89.09,2.03
15,5.72,14.26,46.51,1.83,-0.59,-3.25,17.22,8.63,88.24,1.12
16,5.74,14.89,47.57,5.7,-0.59,-3.25,17.22,8.63,88.24,1.12
17,5.74,14.89,47.57,5.7,2.76,-3.48,17.66,6.42,88.24,1.12
18,3.01,14.89,47.57,5.7,2.76,-3.48,17.66,6.42,87.67,0.19
19,3.01,15.1,45.65,4.66,2.76,-3.48,17.66,6.42,87.67,0.19
20,3.01,15.1,45.65,4.66,1.29,-4.87,17.57,4.91,87.08,0.19
21,12.77,12.27,45.65,4.66,1.29,-4.87,17.57,4.91,87.08,0.0
22,12.77,12.27,46.31,8.41,8.61,-6.05,17.57,4.91,87.08,0.0
23,12.77,12.27,46.31,8.41,8.61,-6.05,15.49,16.0,86.19,0.57
24,36.26,-4.44,52.4,8.41,8.61,-6.05,15.49,16.0,86.19,0.57

0,9.01,12.82,46.78,3.03,0.75,-14.4,15.21,9.53,62.49,1.57
1,9.01,12.82,46.78,3.03,0.75,-14.4,15.21,8.45,59.82,0.1
2,9.19,12.15,48.65,3.03,0.75,-14.4,15.21,8.45,59.82,0.1
3,9.19,12.15,48.65,6.44,1.42,-9.59,13.99,8.45,59.82,0.1
4,9.19,12.15,48.65,6.44,1.42,-9.59,13.99,9.52,58.2,-1.06
5,5.61,13.02,47.61,0.39,1.42,-9.59,13.99,9.52,58.2,-1.06
6,5.61,13.02,47.61,0.39,0.62,-10.44,15.48,7.66,58.2,-1.06
7,6.91,11.46,47.61,0.39,0.62,-10.44,15.48,7.66,56.69,1.5
8,6.91,11.46,46.33,6.05,3.57,-10.44,15.48,7.66,56.69,1.5
9,6.91,11.46,46.33,6.05,3.57,-7.93,13.61,9.89,55.34,1.5
10,8.94,9.93,46.33,6.05,3.57,-7.93,13.61,9.89,55.34,0.13
11,8.94,9.93,47.82,3.63,3.08,-4.27,13.61,9.89,55.34,0.13
12,8.94,9.93,47.82,3.63,3.08,-4.27,11.18,11.46,54.46,0.14
13,9.71,10.04,47.82,3.63,3.08,-4.27,11.18,11.46,54.46,0.14
14,9.71,10.04,49.41,3.68,3.59,-0.22,11.18,11.46,54.46,0.14
15,9.71,10.04,49.41,3.68,3.59,-0.22,11.52,9.97,54.36,0.4
16,11.81,9.84,46.99,1.49,3.59,-0.22,11.52,9.97,54.36,0.4
17,11.81,9.84,46.99,1.49,1.4,-1.01,11.78,13.72,54.36,0.4
18,11.81,9.84,46.99,1.49,1.4,-1.01,11.78,13.72,54.31,0.42
19,15.5,8.85,46.55,3.15,1.4,-1.01,11.78,13.72,54.31,0.42
20,15.5,8.85,46.55,3.15,4.08,1.47,9.29,23.17,54.31,0.42
21,33.72,8.85,46.55,3.15,4.08,1.47,9.29,23.17,54.48,0.14
22,33.72,-3.96,50.47,10.42,4.08,1.47,9.29,23.17,54.48,0.14
23,33.72,-3.96,50.47,10.42,12.01,11.98,-6.66,38.73,55.7,0.14
24,96.98,-59.81,50.47,10.42,12.01,11.98,-6.66,38.73,55.7,3.47

0,3.96,11.63,48.91,-1.64,2.37,-5.06,13.21,3.83,31.5,-2.54
1,3.96,11.63,48.91,-1.64,2.37,-5.06,13.33,6.12,30.68,1.49
2,8.62,11.69,45.45,-1.64,2.37,-5.06,13.33,6.12,30.68,1.49
3,8.62,11.69,45.45,-1.42,0.2,-4.55,13.97,6.12,30.68,1.49
4,8.62,11.69,45.45,-1.42,0.2,-4.55,13.97,8.16,29.75,-0.5
5,6.89,11.88,44.45,1.39,0.2,-4.55,13.97,8.16,29.75,-0.5
6,6.89,11.88,44.45,1.39,1.49,-4.12,14.79,8.8,29.75,-0.5
7,2.84,11.88,44.45,1.39,1.49,-4.12,14.79,8.8,29.19,-0.85
8,2.84,11.05,49.73,2.6,2.84,-4.12,14.79,8.8,29.19,-0.85
9,2.84,11.05,49.73,2.6,2.84,-1.09,12.94,6.34,28.86,-0.85
10,5.56,11.66,49.73,2.6,2.84,-1.09,12.94,6.34,28.86,1.78
11,5.56,11.66,45.67,1.46,1.1,-3.76,12.94,6.34,28.86,1.78
12,5.56,11.66,45.67,1.46,1.1,-3.76,13.54,6.5,28.36,1.78
13,8.39,10.14,45.67,1.46,1.1,-3.76,13.54,6.5,28.36,0.18
14,8.39,10.14,48.6,2.15,4.06,-5.42,13.54,6.5,28.36,0.18
15,8.39,10.14,48.6,2.15,4.06,-5.42,10.65,10.9,27.56,0.31
16,9.51,7.35,48.07,2.15,4.06,-5.42,10.65,10.9,27.56,0.31
17,9.51,7.35,48.07,1.82,2.76,-0.72,8.52,10.9,27.56,0.31
18,9.51,7.35,48.07,1.82,2.76,-0.72,8.52,12.49,27.22,0.16
19,9.7,9.57,46.19,0.16,2.76,-0.72,8.52,12.49,27.22,0.16
20,9.7,9.57,46.19,0.16,0.49,2.14,11.66,13.04,27.22,0.16
21,50.06,9.57,46.19,0.16,0.49,2.14,11.66,13.04,27.53,1.12
22,50.06,-22.26,60.68,17.73,0.49,2.14,11.66,13.04,27.53,1.12
23,50.06,-22.26,60.68,17.73,21.0,0.73,-14.59,42.11,27.53,1.12
24,98.78,-58.53,60.68,17.73,21.0,0.73,-14.59,42.11,27.84,15.87

0,13.03,8.64,51.39,-2.05,5.32,-11.25,7.94,8.7,-0.13,-3.18
1,13.03,8.64,51.39,-2.05,5.32,-14.31,10.01,13.84,-2.27,-3.18
2,6.92,10.07,51.7,-2.05,5.32,-14.31,10.01,13.84,-2.27,1.08
3,6.92,10.07,51.7,-3.05,1.41,-2.62,10.48,13.84,-2.27,1.08
4,6.92,10.07,51.7,-3.05,1.41,-2.62,10.48,11.78,-2.94,4.11
5,7.45,10.75,47.8,-3.05,1.41,-2.62,10.48,11.78,-2.94,4.11
6,7.45,10.75,47.8,-0.8,-0.23,0.32,12.85,11.78,-2.94,4.11
7,7.45,10.75,47.8,-0.8,-0.23,0.32,12.85,10.97,-3.34,1.86
8,11.34,11.6,46.0,2.41,-0.23,0.32,12.85,10.97,-3.34,1.86
9,11.34,11.6,46.0,2.41,-4.65,5.12,13.3,3.37,-3.34,1.86
10,11.34,11.6,46.0,2.41,-4.65,5.12,13.3,3.37,-2.84,-0.96
11,4.24,12.85,48.33,0.68,-4.65,5.12,13.3,3.37,-2.84,-0.96
12,4.24,12.85,48.33,0.68,-4.65,5.12,13.3,3.37,-2.84,-0.96
13,1.35,12.02,48.33,0.68,-4.65,5.12,13.3,3.37,-2.84,-0.96
14,1.35,12.02,48.09,0.06,-0.94,-0.84,13.3,3.37,-2.84,-0.96
15,1.35,12.02,48.09,0.06,-0.94,-0.84,13.66,2.87,-2.61,0.08
16,6.4,10.9,46.66,0.06,-0.94,-0.84,13.66,2.87,-2.61,0.08
17,6.4,10.9,46.66,0.05,1.06,-1.82,13.08,2.87,-2.61,0.08
18,6.4,10.9,46.66,0.05,1.06,-1.82,13.08,7.03,-2.94,-0.6
19,5.82,11.54,47.06,-0.48,1.06,-1.82,13.08,7.03,-2.94,-0.6
20,5.82,11.54,47.06,-0.48,0.43,-1.53,13.6,9.13,-2.94,-0.6
21,5.82,11.54,47.06,-0.48,0.43,-1.53,13.6,9.13,-3.11,2.55
22,18.63,2.65,48.84,8.46,0.43,-1.53,13.6,9.13,-3.11,2.55
23,18.63,2.65,48.84,8.46,11.21,0.64,-0.18,32.78,-3.11,2.55
24,95.93,2.65,48.84,8.46,11.21,0.64,-0.18,32.78,-3.13,0.12

0,2.88,12.06,47.33,0.52,3.76,-5.42,14.83,5.16,-28.96,0.09
1,2.88,12.06,47.33,0.52,3.76,-5.42,14.83,4.76,-30.15,0.32
2,3.85,12.34,48.37,4.97,3.76,-5.42,14.83,4.76,-30.15,0.32
3,3.85,12.34,48.37,4.97,5.44,-4.51,14.45,3.51,-30.15,0.32
4,4.27,12.34,48.37,4.97,5.44,-4.51,14.45,3.51,-30.96,-1.7
5,4.27,11.67,44.78,0.76,5.64,-4.51,14.45,3.51,-30.96,-1.7
6,4.27,11.67,44.78,0.76,5.64,-5.05,14.56,6.5,-31.69,-1.7
7,4.85,10.26,44.78,0.76,5.64,-5.05,14.56,6.5,-31.69,1.3
8,4.85,10.26,47.69,6.33,4.39,-5.05,14.56,6.5,-31.69,1.3
9,4.85,10.26,47.69,6.33,4.39,-2.87,11.93,5.45,-32.24,1.3
10,4.78,10.22,47.69,6.33,4.39,-2.87,11.93,5.45,-32.24,-0.45
11,4.78,10.22,48.14,1.71,1.71,-2.87,11.93,5.45,-32.24,-0.45
12,4.78,10.22,48.14,1.71,1.71,-1.25,11.93,6.92,-32.24,-0.45
13,11.68,9.06,48.14,1.71,1.71,-1.25,11.93,6.92,-32.51,0.09
14,11.68,9.06,47.11,3.35,4.71,-1.79,11.93,6.92,-32.51,0.09
15,11.68,9.06,47.11,3.35,4.71,-1.79,11.1,14.17,-32.75,-1.22
16,16.19,4.53,53.98,3.35,4.71,-1.79,11.1,14.17,-32.75,-1.22
17,16.19,4.53,53.98,4.16,5.68,2.14,4.74,18.56,-32.46,-1.22
18,43.17,-17.91,53.98,4.16,5.68,2.14,4.74,18.56,-32.46,0.22
19,43.17,-17.91,51.31,9.38,16.88,17.25,4.74,18.56,-32.46,0.22
20,43.17,-17.91,51.31,9.38,16.88,17.25,-19.25,43.22,-30.78,0.3
21,82.04,-72.09,51.31,9.38,16.88,17.25,-19.25,43.22,-30.78,0.3
22,82.04,-72.09,68.98,-1.06,10.69,80.47,-19.25,43.22,-30.78,0.3
23,82.04,-72.09,68.98,-1.06,10.69,80.47,-42.71,52.92,-21.23,3.13
24,43.62,-99.99,21.54,-1.06,10.69,80.47,-42.71,52.92,-21.23,3.13

0,12.13,7.73,52.06,2.48,-3.75,-7.39,7.86,11.78,-63.42,0.32
1,12.13,7.73,52.06,2.48,-3.75,-7.39,7.86,11.78,-64.96,0.21
2,14.18,4.43,49.46,2.48,-3.75,-7.39,7.86,11.78,-64.96,0.21
3,14.18,4.43,49.46,2.17,-0.51,-5.56,5.5,11.78,-64.96,0.21
4,8.18,4.43,49.46,2.17,-0.51,-5.56,5.5,15.94,-65.87,1.02
5,8.18,7.65,50.38,0.49,-1.61,-5.56,5.5,15.94,-65.87,1.02
6,8.18,7.65,50.38,0.49,-1.61,0.99,8.31,9.46,-65.87,1.02
7,8.05,7.46,50.38,0.49,-1.61,0.99,8.31,9.46,-65.87,-0.09
8,8.05,7.46,45.98,2.43,0.16,0.17,8.31,9.46,-65.87,-0.09
9,8.05,7.46,45.98,2.43,0.16,0.17,9.09,9.17,-65.74,-1.46
10,4.5,8.3,45.98,2.43,0.16,0.17,9.09,9.17,-65.74,-1.46
11,4.5,8.3,49.65,2.09,2.02,0.64,9.09,9.17,-65.74,-1.46
12,4.5,8.3,49.65,2.09,2.02,0.64,9.38,7.59,-65.57,-0.04
13,8.06,7.97,49.65,2.09,2.02,0.64,9.38,7.59,-65.57,-0.04
14,8.06,7.97,48.32,1.03,2.11,0.15,9.21,7.59,-65.57,-0.04
15,8.06,7.97,48.32,1.03,2.11,0.15,9.21,9.52,-65.57,0.24
16,7.44,8.13,48.12,-0.07,2.11,0.15,9.21,9.52,-65.57,0.24
17,7.44,8.13,48.12,-0.07,0.62,0.19,9.35,8.07,-65.57,0.24
18,10.0,8.13,48.12,-0.07,0.62,0.19,9.35,8.07,-65.5,0.24
19,10.0,7.04,46.04,1.96,1.6,0.19,9.35,8.07,-65.5,0.24
20,10.0,7.04,46.04,1.96,1.6,-0.65,7.85,12.65,-65.71,0.24
21,7.73,7.68,46.69,1.96,1.6,-0.65,7.85,12.65,-65.71,0.01
22,7.73,7.68,46.69,0.62,0.35,0.13,7.85,12.65,-65.71,0.01
23,7.73,7.68,46.69,0.62,0.35,0.13,9.05,10.44,-65.71,0.33
24,14.9,3.45,46.69,0.62,0.35,0.13,9.05,10.44,-65.71,0.33

0,-0.23,11.8,49.63,0.72,4.64,-6.09,11.99,11.07,-98.36,0.81
1,-0.23,11.8,49.63,0.72,-0.6,0.56,13.49,1.33,-98.36,0.81
2,5.52,11.8,49.63,0.72,-0.6,0.56,13.49,1.33,-98.14,0.26
3,5.52,11.03,48.32,0.92,1.22,0.56,13.49,1.33,-98.14,0.26
4,5.52,11.03,48.32,0.92,1.22,-0.95,13.12,4.63,-98.29,0.26
5,2.11,10.94,48.32,0.92,1.22,-0.95,13.12,4.63,-98.29,-3.39
6,2.11,10.94,47.82,0.94,-0.31,-3.63,13.12,4.63,-98.29,-3.39
7,2.11,10.94,47.82,0.94,-0.31,-3.63,13.18,4.75,-98.59,2.64
8,4.82,9.3,47.82,0.94,-0.31,-3.63,13.18,4.75,-98.59,2.64
9,4.82,9.3,47.26,4.55,0.94,-2.5,13.18,4.75,-98.59,2.64
10,4.82,9.3,47.26,4.55,0.94,-2.5,11.04,3.75,-99.14,-0.07
11,5.61,8.72,48.41,4.55,0.94,-2.5,11.04,3.75,-99.14,-0.07
12,5.61,8.72,48.41,2.93,0.61,-3.52,10.12,3.75,-99.14,-0.07
13,5.61,8.72,48.41,2.93,0.61,-3.52,10.12,7.49,-99.58,0.15
14,1.59,9.06,48.82,2.93,0.61,-3.52,10.12,7.49,-99.58,0.15
15,1.59,9.06,48.82,4.78,3.86,-3.69,10.52,3.57,-99.58,0.15
16,1.59,9.06,48.82,4.78,3.86,-3.69,10.52,3.57,-99.93,0.23
17,2.57,8.87,48.38,2.41,3.86,-3.69,10.52,3.57,-99.93,0.23
18,2.57,8.87,48.38,2.41,1.31,-3.96,10.21,2.92,-100.6,0.23
19,9.52,8.87,48.38,2.41,1.31,-3.96,10.21,2.92,-100.6,-0.98
20,9.52,7.06,48.79,-3.77,2.26,-3.96,10.21,2.92,-100.6,-0.98
21,9.52,7.06,48.79,-3.77,2.26,-5.22,8.65,12.36,-101.63,-0.98
22,11.94,6.54,49.99,-3.77,2.26,-5.22,8.65,12.36,-101.63,0.07
23,11.94,6.54,49.99,4.54,8.68,1.74,5.91,12.36,-101.63,0.07
24,11.94,6.54,49.99,4.54,8.68,1.74,5.91,22.34,-101.45,0.07

0,15.16,10.36,47.32,10.99,6.64,-11.78,12.51,14.89,-135.02,-2.08
1,15.16,10.36,47.32,10.99,6.64,-11.65,12.51,17.72,-136.73,0.54
2,9.59,11.42,47.32,10.99,6.64,-11.65,12.51,17.72,-136.73,0.54
3,9.59,11.42,48.67,8.69,0.88,-5.38,12.51,17.72,-136.73,0.54
4,9.59,11.42,48.67,8.69,0.88,-5.38,12.72,11.01,-137.51,0.14
5,15.48,8.76,47.71,3.83,0.88,-5.38,12.72,11.01,-137.51,0.14
6,15.48,8.76,47.71,3.83,-0.58,-5.62,11.15,15.08,-137.51,0.14
7,12.05,8.76,47.71,3.83,-0.58,-5.62,11.15,15.08,-138.81,-1.48
8,12.05,8.78,45.77,2.42,-1.38,-5.62,11.15,15.08,-138.81,-1.48
9,12.05,8.78,45.77,2.42,-1.38,-4.57,10.98,14.77,-139.51,-1.48
10,11.66,7.99,45.77,2.42,-1.38,-4.57,10.98,14.77,-139.51,-0.97
11,11.66,7.99,48.79,0.76,0.47,0.85,10.98,14.77,-139.51,-0.97
12,11.66,7.99,48.79,0.76,0.47,0.85,9.04,14.04,-139.53,-0.97
13,8.34,8.41,48.79,0.76,0.47,0.85,9.04,14.04,-139.53,0.23
14,8.34,8.41,47.75,1.52,-3.09,-0.41,9.04,14.04,-139.53,0.23
15,8.34,8.41,47.75,1.52,-3.09,-0.41,9.58,10.41,-139.39,0.27
16,9.35,8.64,47.51,1.52,-3.09,-0.41,9.58,10.41,-139.39,0.27
17,9.35,8.64,47.51,1.84,0.51,0.84,10.3,10.41,-139.39,0.27
18,9.35,8.64,47.51,1.84,0.51,0.84,10.3,11.74,-139.43,0.69
19,5.23,10.46,47.17,-3.03,0.51,0.84,10.3,11.74,-139.43,0.69
20,5.23,10.46,47.17,-3.03,-2.33,-1.22,12.04,8.4,-139.43,0.69
21,12.75,10.46,47.17,-3.03,-2.33,-1.22,12.04,8.4,-139.56,1.95
22,12.75,7.04,47.46,3.38,-2.33,-1.22,12.04,8.4,-139.56,1.95
23,12.75,7.04,47.46,3.38,2.4,-3.52,7.63,20.97,-140.27,1.95
24,31.62,-4.69,47.46,3.38,2.4,-3.52,7.63,20.97,-140.27,2.67

0,7.76,9.7,46.21,-2.51,1.03,-2.04,12.12,8.44,-174.48,0.39
1,7.76,9.7,46.21,-2.51,1.03,-2.04,12.17,8.81,-174.87,-0.09
2,8.29,10.49,49.33,0.6,1.03,-2.04,12.17,8.81,-174.87,-0.09
3,8.29,10.49,49.33,0.6,1.64,0.84,12.28,8.81,-174.87,-0.09
4,8.29,10.49,49.33,0.6,1.64,0.84,12.28,8.89,-174.93,0.3
5,4.7,12.44,46.77,0.09,0.73,0.84,12.28,8.89,-174.93,0.3
6,4.7,12.44,46.77,0.09,0.73,-0.57,14.48,6.12,-174.93,0.3
7,7.55,12.44,46.77,0.09,0.73,-0.57,14.48,6.12,-174.85,0.52
8,7.55,10.07,47.86,1.6,1.88,-0.57,14.48,6.12,-174.85,0.52
9,7.55,10.07,47.86,1.6,1.88,-0.27,12.23,8.07,-174.94,0.52
10,7.91,8.84,47.86,1.6,1.88,-0.27,12.23,8.07,-174.94,0.26
11,7.91,8.84,47.71,0.53,1.06,-0.43,12.23,8.07,-174.94,0.26
12,7.91,8.84,47.71,0.53,1.06,-0.43,10.8,10.26,-174.97,1.24
13,6.65,8.59,48.33,0.53,1.06,-0.43,10.8,10.26,-174.97,1.24
14,6.65,8.59,48.33,2.06,1.73,2.48,9.81,10.26,-174.97,1.24
15,6.65,8.59,48.33,2.06,1.73,2.48,9.81,8.62,-174.7,0.17
16,8.16,8.36,47.06,2.06,1.73,2.48,9.81,8.62,-174.7,0.17
17,8.16,8.36,47.06,-0.22,2.43,0.47,10.06,8.62,-174.7,0.17
18,8.16,8.36,47.06,-0.22,2.43,0.47,10.06,11.65,-174.55,-0.23
19,19.2,1.03,47.06,-0.22,2.43,0.47,10.06,11.65,-174.55,-0.23
20,19.2,1.03,49.58,5.69,6.58,5.39,10.06,11.65,-174.55,-0.23
21,19.2,1.03,49.58,5.69,6.58,5.39,2.95,24.3,-173.84,2.77
22,73.79,-36.04,61.98,6.2,6.58,5.39,2.95,24.3,-173.84,2.77
23,73.79,-36.04,61.98,6.2,16.17,29.27,-29.84,53.28,-173.84,2.77
24,90.19,-89.81,61.98,6.2,16.17,29.27,-29.84,53.28,-169.83,-4.72

0,10.38,12.34,44.54,-0.66,1.61,-2.34,14.55,9.53,162.5,-0.02
1,10.38,12.34,44.54,-0.66,1.61,-2.34,14.55,11.02,162.0,0.13
2,5.62,12.22,48.02,-0.66,1.61,-2.34,14.55,11.02,162.0,0.13
3,5.62,12.22,48.02,-0.65,-3.59,-0.75,14.3,11.02,162.0,0.13
4,5.62,12.22,48.02,-0.65,-3.59,-0.75,14.3,7.94,161.89,0.13
5,6.27,11.88,46.06,4.01,-3.59,-0.75,14.3,7.94,161.89,0.13
6,6.27,11.88,46.06,4.01,-0.24,-1.25,14.11,9.08,161.89,0.13
7,7.66,11.88,46.06,4.01,-0.24,-1.25,14.11,9.08,161.69,1.27
8,7.66,10.98,48.59,1.76,-1.5,-1.25,14.11,9.08,161.69,1.27
9,7.66,10.98,48.59,1.76,-1.5,-1.45,12.63,7.01,161.69,1.27
10,8.68,9.5,48.59,1.76,-1.5,-1.45,12.63,7.01,161.45,-2.22
11,8.68,9.5,47.76,2.96,2.96,-3.85,12.63,7.01,161.45,-2.22
12,8.68,9.5,47.76,2.96,2.96,-3.85,11.25,11.19,160.87,0.03
13,5.58,9.81,47.72,2.96,2.96,-3.85,11.25,11.19,160.87,0.03
14,5.58,9.81,47.72,2.15,2.78,-2.58,11.25,11.19,160.87,0.03
15,5.58,9.81,47.72,2.15,2.78,-2.58,11.51,10.15,160.36,0.02
16,8.89,8.91,48.1,2.15,2.78,-2.58,11.51,10.15,160.36,0.02
17,8.89,8.91,48.1,3.55,2.32,1.25,10.57,10.15,160.36,0.02
18,8.89,8.91,48.1,3.55,2.32,1.25,10.57,8.5,160.26,-2.48
19,9.59,9.21,47.74,0.77,2.32,1.25,10.57,8.5,160.26,-2.48
20,9.59,9.21,47.74,0.77,1.39,-1.74,11.09,11.87,160.26,-2.48
21,6.77,9.21,47.74,0.77,1.39,-1.74,11.09,11.87,160.21,0.9
22,6.77,8.93,46.84,3.86,1.1,-1.74,11.09,11.87,160.21,0.9
23,6.77,8.93,46.84,3.86,1.1,3.29,10.75,7.28,160.54,0.9
24,23.86,8.93,46.84,3.86,1.1,3.29,10.75,7.28,160.54,0.01

0,2.29,18.8,42.11,2.51,-0.54,-7.57,19.07,12.94,134.09,0.35
1,2.29,18.8,42.11,2.51,-0.54,-4.21,20.88,7.71,134.09,0.35
2,10.58,14.77,42.11,2.51,-0.54,-4.21,20.88,7.71,133.29,2.55
3,10.58,14.77,42.84,0.31,-1.24,-4.21,20.88,7.71,133.29,2.55
4,10.58,14.77,42.84,0.31,-1.24,-5.1,19.96,14.7,132.42,0.22
5,5.59,15.81,42.84,0.31,-1.24,-5.1,19.96,14.7,132.42,0.22
6,5.59,15.81,47.73,4.64,-0.15,-1.04,18.75,14.7,132.42,0.22
7,5.59,15.81,47.73,4.64,-0.15,-1.04,18.75,4.58,132.02,0.12
8,9.27,13.05,44.42,4.64,-0.15,-1.04,18.75,4.58,132.02,0.12
9,9.27,13.05,44.42,4.78,-0.45,-5.19,16.61,4.58,132.02,0.12
10,9.27,13.05,44.42,4.78,-0.45,-5.19,16.61,11.58,131.34,0.66
11,11.28,11.4,47.78,4.78,-0.45,-5.19,16.61,11.58,131.34,0.66
12,11.28,11.4,47.78,1.75,0.08,-6.14,13.77,11.58,131.34,0.66
13,11.28,11.4,47.78,1.75,0.08,-6.14,13.77,13.48,130.36,0.57
14,12.37,10.9,46.97,1.75,0.08,-6.14,13.77,13.48,130.36,0.57
15,12.37,10.9,46.97,7.54,1.62,2.3,13.24,13.48,130.36,0.57
16,12.37,10.9,46.97,7.54,1.62,2.3,13.24,11.79,130.34,0.29
17,4.8,11.45,47.8,0.69,1.62,2.3,13.24,11.79,130.34,0.29
18,4.8,11.45,47.8,0.69,-2.32,1.13,13.33,9.19,130.34,0.29
19,5.44,11.45,47.8,0.69,-2.32,1.13,13.33,9.19,130.85,1.01
20,5.44,11.18,46.32,3.58,-1.16,1.13,13.33,9.19,130.85,1.01
21,5.44,11.18,46.32,3.58,-1.16,1.17,13.47,6.61,130.96,1.01
22,0.96,12.95,46.32,3.58,-1.16,1.17,13.47,6.61,130.96,-0.13
23,0.96,12.95,48.3,0.67,-0.02,-2.93,13.47,6.61,130.96,-0.13
24,0.96,12.95,48.3,0.67,-0.02,-2.93,14.58,3.14,130.85,-0.13

0,-4.15,-44.74,41.7,3.49,-14.01,-100.0,-47.12,6.32,153.58,6.75
1,-4.15,-44.74,41.7,3.49,-14.01,-100.0,-47.12,6.32,153.58,19.31
2,32.48,-28.78,60.76,-14.25,-32.94,-100.0,-47.12,6.32,153.58,19.31
3,32.48,-28.78,60.76,-14.25,-32.94,-99.99,-29.22,35.25,136.08,19.31
4,59.68,-28.78,60.76,-14.25,-32.94,-99.99,-29.22,35.25,136.08,0.1
5,59.68,-18.9,44.6,-3.29,-2.58,-99.99,-29.22,35.25,136.08,0.1
6,59.68,-18.9,44.6,-3.29,-2.58,-63.39,-23.68,45.19,124.96,0.1
7,28.27,-1.23,44.6,-3.29,-2.58,-63.39,-23.68,45.19,124.96,-5.71
8,28.27,-1.23,50.62,-1.27,-16.2,-4.63,-3.25,45.19,124.96,-5.71
9,28.27,-1.23,50.62,-1.27,-16.2,-4.63,-3.25,26.13,122.32,-5.18
10,17.03,6.68,51.49,-1.27,-16.2,-4.63,-3.25,26.13,122.32,-5.18
11,17.03,6.68,51.49,2.46,-3.14,9.3,-3.25,26.13,122.32,-5.18
12,17.03,6.68,51.49,2.46,-3.14,9.3,8.03,15.71,123.85,-2.52
13,1.13,13.06,45.18,2.46,-3.14,9.3,8.03,15.71,123.85,-2.52
14,1.13,13.06,45.18,2.24,0.83,8.56,15.45,15.71,123.85,-2.52
15,2.6,13.06,45.18,2.24,0.83,8.56,15.45,6.7,125.68,0.19
16,2.6,14.94,46.43,-1.28,-1.04,8.56,15.45,6.7,125.68,0.19
17,2.6,14.94,46.43,-1.28,-1.04,5.94,17.7,2.84,126.91,0.19
18,11.42,11.68,46.43,-1.28,-1.04,5.94,17.7,2.84,126.91,-0.85
19,11.42,11.68,45.0,1.25,3.37,5.94,17.7,2.84,126.91,-0.85
20,11.42,11.68,45.0,1.25,3.37,3.91,15.52,17.43,127.61,-0.85
21,43.74,-15.12,45.0,1.25,3.37,3.91,15.52,17.43,127.61,3.97
22,43.74,-15.12,54.05,8.13,12.88,26.67,15.52,17.43,127.61,3.97
23,43.74,-15.12,54.05,8.13,12.88,26.67,-18.24,47.22,130.22,0.11
24,99.99,-15.12,54.05,8.13,12.88,26.67,-18.24,47.22,130.22,0.11

0,6.89,13.63,46.49,-0.53,-1.08,2.86,13.58,12.51,75.96,0.24
1,6.89,13.63,46.49,-0.53,-1.08,2.86,13.58,8.23,76.25,0.02
2,9.22,12.0,47.09,-0.53,-1.08,2.86,13.58,8.23,76.25,0.02
3,9.22,12.0,47.09,8.36,-1.7,-1.28,14.91,8.23,76.25,0.02
4,9.22,12.0,47.09,8.36,-1.7,-1.28,14.91,9.97,76.38,0.23
5,8.8,11.9,46.61,-2.99,-1.7,-1.28,14.91,9.97,76.38,0.23
6,8.8,11.9,46.61,-2.99,-2.79,1.79,14.14,9.97,76.38,0.23
7,8.8,11.9,46.61,-2.99,-2.79,1.79,14.14,9.74,76.68,-0.35
8,5.34,12.48,47.47,2.19,-2.79,1.79,14.14,9.74,76.68,-0.35
9,5.34,12.48,47.47,2.19,0.1,-0.31,14.9,7.01,76.68,-0.35
10,7.84,12.48,47.47,2.19,0.1,-0.31,14.9,7.01,76.87,0.85
11,7.84,12.71,46.34,-0.63,-0.05,-0.31,14.9,7.01,76.87,0.85
12,7.84,12.71,46.34,-0.63,-0.05,-0.61,14.93,8.63,76.81,0.85
13,7.27,11.78,46.34,-0.63,-0.05,-0.61,14.93,8.63,76.81,0.03
14,7.27,11.78,45.69,-0.39,-0.13,-0.61,14.36,8.63,76.81,0.03
15,7.27,11.78,45.69,-0.39,-0.13,-3.82,14.36,9.06,76.49,-0.79
16,3.38,11.51,46.95,-0.39,-0.13,-3.82,14.36,9.06,76.49,-0.79
17,3.38,11.51,46.95,2.4,2.38,-3.42,13.95,9.06,76.49,-0.79
18,3.38,11.51,46.95,2.4,2.38,-3.42,13.95,8.74,76.03,1.09
19,11.65,8.73,46.42,7.34,2.38,-3.42,13.95,8.74,76.03,1.09
20,11.65,8.73,46.42,7.34,1.82,-3.27,10.27,16.13,76.03,1.09
21,35.29,8.73,46.42,7.34,1.82,-3.27,10.27,16.13,75.39,0.14
22,35.29,-5.36,53.67,9.8,9.78,-3.27,10.27,16.13,75.39,0.14
23,35.29,-5.36,53.67,9.8,9.78,2.3,-3.22,35.38,75.53,0.14
24,99.99,-72.24,53.67,9.8,9.78,2.3,-3.22,35.38,75.53,5.19

0,8.98,11.94,46.9,-3.25,-2.29,3.98,14.64,14.98,34.73,0.18
1,8.98,11.94,46.9,-3.25,-2.29,3.98,14.64,10.23,35.26,0.01
2,9.43,13.13,45.18,2.45,-2.29,3.98,14.64,10.23,35.26,0.01
3,9.43,13.13,45.18,2.45,0.74,3.38,16.14,8.64,35.26,0.01
4,9.64,13.13,45.18,2.45,0.74,3.38,16.14,8.64,35.72,-3.14
5,9.64,11.79,47.16,0.42,2.24,3.38,16.14,8.64,35.72,-3.14
6,9.64,11.79,47.16,0.42,2.24,-2.81,14.14,9.94,35.67,-3.14
7,8.55,13.64,47.16,0.42,2.24,-2.81,14.14,9.94,35.67,-1.08
8,8.55,13.64,46.13,2.18,-0.3,-2.81,14.14,9.94,35.67,-1.08
9,8.55,13.64,46.13,2.18,-0.3,-4.2,16.39,9.56,35.01,-1.08
10,10.29,11.15,48.08,2.18,-0.3,-4.2,16.39,9.56,35.01,0.25
11,10.29,11.15,48.08,7.62,4.83,-6.41,13.13,9.56,35.01,0.25
12,10.29,11.15,48.08,7.62,4.83,-6.41,13.13,13.46,33.99,1.34
13,14.78,7.27,47.75,7.62,4.83,-6.41,13.13,13.46,33.99,1.34
14,14.78,7.27,47.75,12.05,2.39,-9.01,9.56,13.46,33.99,1.34
15,14.78,7.27,47.75,12.05,2.39,-9.01,9.56,17.65,32.58,0.59
16,11.71,4.71,48.55,12.05,2.39,-9.01,9.56,17.65,32.58,0.59
17,11.71,4.71,48.55,3.85,-1.65,-4.28,6.09,17.65,32.58,0.59
18,29.05,4.71,48.55,3.85,-1.65,-4.28,6.09,14.59,31.6,0.33
19,29.05,3.04,47.48,7.6,-1.65,-4.28,6.09,14.59,31.6,0.33
20,29.05,3.04,47.48,7.6,4.41,0.06,1.72,31.55,31.6,0.33
21,51.96,3.04,47.48,7.6,4.41,0.06,1.72,31.55,31.06,0.06
22,51.96,-26.58,62.93,5.85,3.66,0.06,1.72,31.55,31.06,0.06
23,51.96,-26.58,62.93,5.85,3.66,18.88,-19.91,43.8,34.8,0.06
24,99.99,-99.99,62.93,5.85,3.66,18.88,-19.91,43.8,34.8,9.28

0,7.61,11.49,46.77,-0.56,-1.9,1.56,13.69,12.42,-2.0,0.92
1,7.61,11.49,46.77,-0.56,-1.9,1.56,13.69,7.38,-1.89,-0.17
2,5.56,12.97,46.44,-3.0,-1.9,1.56,13.69,7.38,-1.89,-0.17
3,5.56,12.97,46.44,-3.0,0.39,0.0,15.27,6.66,-1.89,-0.17
4,5.83,12.97,46.44,-3.0,0.39,0.0,15.27,6.66,-1.68,0.03
5,5.83,12.55,47.31,3.34,1.75,0.0,15.27,6.66,-1.68,0.03
6,5.83,12.55,47.31,3.34,1.75,-0.03,15.06,6.86,-1.63,0.03
7,6.42,12.17,47.31,3.34,1.75,-0.03,15.06,6.86,-1.63,0.28
8,6.42,12.17,45.9,-2.07,0.26,-0.03,14.71,6.86,-1.63,0.28
9,6.42,12.17,45.9,-2.07,0.26,-0.77,14.71,7.49,-1.69,0.28
10,4.15,12.74,45.9,-2.07,0.26,-0.77,14.71,7.49,-1.69,-0.27
11,4.15,12.74,46.78,1.52,-2.45,-0.77,14.71,7.49,-1.69,-0.27
12,4.15,12.74,46.78,1.52,-2.45,-0.5,14.89,4.85,-1.78,-0.27
13,1.92,11.89,46.78,1.52,-2.45,-0.5,14.89,4.85,-1.78,-0.49
14,1.92,11.89,47.53,3.59,1.03,-2.87,14.38,4.85,-1.78,-0.49
15,1.92,11.89,47.53,3.59,1.03,-2.87,14.38,6.06,-2.18,1.5
16,8.0,9.81,45.95,3.59,1.03,-2.87,14.38,6.06,-2.18,1.5
17,8.0,9.81,45.95,2.0,0.74,-6.37,12.45,9.55,-2.18,1.5
18,8.0,9.81,45.95,2.0,0.74,-6.37,12.45,9.55,-3.08,0.1
19,8.52,10.83,42.47,14.49,4.59,-6.37,12.45,9.55,-3.08,0.1
20,8.52,10.83,42.47,14.49,4.59,-9.23,12.33,15.67,-3.08,0.1
21,30.51,10.83,42.47,14.49,4.59,-9.23,12.33,15.67,-4.4,1.96
22,30.51,-6.12,55.47,15.5,11.67,-4.91,12.33,15.67,-4.4,1.96
23,30.51,-6.12,55.47,15.5,11.67,-4.91,-7.96,34.21,-5.56,0.23
24,89.0,-51.42,55.47,15.5,11.67,-4.91,-7.96,34.21,-5.56,0.23

0,3.66,13.35,47.06,-2.52,-0.63,3.03,15.46,8.4,-38.95,0.03
1,3.66,13.35,47.06,-2.52,-0.63,6.02,16.19,4.34,-37.96,0.03
2,0.82,15.13,47.06,-2.52,-0.63,6.02,16.19,4.34,-37.96,0.21
3,0.82,15.13,46.48,-3.01,-1.1,2.93,16.19,4.34,-37.96,0.21
4,0.82,15.13,46.48,-3.01,-1.1,2.93,18.13,2.08,-37.34,0.14
5,2.56,15.25,46.48,-3.01,-1.1,2.93,18.13,2.08,-37.34,0.14
6,2.56,15.25,45.14,-2.2,0.23,2.93,18.69,2.08,-37.34,0.14
7,2.56,15.25,45.14,-2.2,0.23,0.22,18.69,3.25,-37.28,0.35
8,2.51,15.0,47.25,-2.2,0.23,0.22,18.69,3.25,-37.28,0.35
9,2.51,15.0,47.25,-0.74,1.43,0.4,17.68,3.25,-37.28,0.35
10,2.51,15.0,47.25,-0.74,1.43,0.4,17.68,4.07,-37.23,1.2
11,0.91,15.96,45.87,-0.74,1.43,0.4,17.68,4.07,-37.23,1.2
12,0.91,15.96,45.87,-3.61,-1.87,-1.17,18.89,4.07,-37.23,1.2
13,0.91,15.96,45.87,-3.61,-1.87,-1.17,18.89,3.68,-37.41,2.45
14,2.44,16.43,45.59,-1.93,-1.87,-1.17,18.89,3.68,-37.41,2.45
15,2.44,16.43,45.59,-1.93,2.2,-3.08,19.06,3.96,-37.41,2.45
16,5.18,16.43,45.59,-1.93,2.2,-3.08,19.06,3.96,-37.96,1.79
17,5.18,15.12,43.61,-1.21,1.93,-3.08,19.06,3.96,-37.96,1.79
18,5.18,15.12,43.61,-1.21,1.93,-5.9,18.59,9.0,-38.98,1.79
19,14.45,11.21,43.61,-1.21,1.93,-5.9,18.59,9.0,-38.98,1.65
20,14.45,11.21,45.4,2.22,8.21,-4.76,13.18,9.0,-38.98,1.65
21,14.45,11.21,45.4,2.22,8.21,-4.76,13.18,20.93,-39.84,0.21
22,48.23,-11.25,47.06,2.22,8.21,-4.76,13.18,20.93,-39.84,0.21
23,48.23,-11.25,47.06,13.01,17.95,13.31,-16.28,20.93,-39.84,0.21
24,48.23,-11.25,47.06,13.01,17.95,13.31,-16.28,51.56,-39.03,0.2

0,2.76,11.41,46.02,-0.98,-0.9,1.28,14.68,0.7,-67.71,-0.18
1,2.76,11.41,46.02,-0.98,-0.9,-1.9,14.08,4.21,-67.92,-0.18
2,1.79,10.73,46.02,-0.98,-0.9,-1.9,14.08,4.21,-67.92,1.45
3,1.79,10.73,47.74,2.23,-1.44,2.12,14.08,4.21,-67.92,1.45
4,1.79,10.73,47.74,2.23,-1.44,2.12,13.39,0.17,-67.84,0.04
5,-0.69,11.96,48.41,-1.22,-1.44,2.12,13.39,0.17,-67.84,0.04
6,-0.69,11.96,48.41,-1.22,0.52,-0.52,13.48,3.83,-67.84,0.04
7,-2.13,11.96,48.41,-1.22,0.52,-0.52,13.48,3.83,-67.89,0.23
8,-2.13,12.57,47.7,1.02,1.28,-0.52,13.48,3.83,-67.89,0.23
9,-2.13,12.57,47.7,1.02,1.28,0.96,14.52,-1.15,-67.85,0.23
10,4.76,12.57,47.7,1.02,1.28,0.96,14.52,-1.15,-67.85,0.75
11,4.76,10.75,46.45,0.33,3.23,0.96,14.52,-1.15,-67.85,0.75
12,4.76,10.75,46.45,0.33,3.23,-0.64,13.25,4.55,-67.98,0.75
13,0.2,12.05,46.45,0.33,3.23,-0.64,13.25,4.55,-67.98,-0.77
14,0.2,12.05,48.08,0.63,-0.01,1.48,13.25,4.55,-67.98,-0.77
15,0.2,12.05,48.08,0.63,-0.01,1.48,14.04,-0.87,-67.73,0.19
16,3.39,11.32,48.08,0.63,-0.01,1.48,14.04,-0.87,-67.73,0.19
17,3.39,11.32,46.84,0.67,1.65,0.02,13.49,-0.87,-67.73,0.19
18,3.39,11.32,46.84,0.67,1.65,0.02,13.49,3.74,-67.84,0.15
19,2.27,12.32,48.28,1.61,1.65,0.02,13.49,3.74,-67.84,0.15
20,2.27,12.32,48.28,1.61,2.4,0.57,14.2,4.9,-67.84,0.15
21,2.27,12.32,48.28,1.61,2.4,0.57,14.2,4.9,-67.75,0.88
22,15.49,3.97,52.07,6.03,2.4,0.57,14.2,4.9,-67.75,0.88
23,15.49,3.97,52.07,6.03,9.59,1.31,3.41,20.98,-67.75,0.88
24,61.09,3.97,52.07,6.03,9.59,1.31,3.41,20.98,-67.73,0.21

0,-0.03,14.8,47.92,-3.27,0.44,-1.51,17.58,1.82,-91.4,0.2
1,6.29,14.8,47.92,-3.27,0.44,-1.51,17.58,1.82,-91.07,0.28
2,6.29,12.69,47.74,2.88,0.44,-1.51,17.58,1.82,-91.07,0.28
3,6.29,12.69,47.74,2.88,3.23,1.54,15.15,4.85,-91.0,0.28
4,1.07,13.65,47.74,2.88,3.23,1.54,15.15,4.85,-91.0,-2.7
5,1.07,13.65,48.09,0.32,-1.09,-0.96,15.15,4.85,-91.0,-2.7
6,1.07,13.65,48.09,0.32,-1.09,-0.96,15.99,2.52,-90.82,-2.7
7,0.75,13.76,48.09,0.32,-1.09,-0.96,15.99,2.52,-90.82,1.76
8,0.75,13.76,48.71,0.66,0.16,1.25,15.99,2.52,-90.82,1.76
9,0.75,13.76,48.71,0.66,0.16,1.25,15.96,0.06,-90.76,0.27
10,-0.97,14.16,47.04,0.66,0.16,1.25,15.96,0.06,-90.76,0.27
11,-0.97,14.16,47.04,0.36,1.12,-1.65,15.99,0.06,-90.76,0.27
12,-0.97,14.16,47.04,0.36,1.12,-1.65,15.99,1.76,-90.97,0.77
13,1.53,12.0,48.91,1.41,1.12,-1.65,15.99,1.76,-90.97,0.77
14,1.53,12.0,48.91,1.41,1.8,-0.11,13.4,1.76,-90.97,0.77
15,1.53,12.0,48.91,1.41,1.8,-0.11,13.4,2.3,-91.13,1.23
16,1.93,11.22,45.46,1.41,1.8,-0.11,13.4,2.3,-91.13,1.23
17,1.93,11.22,45.46,0.82,1.44,-1.91,13.39,2.3,-91.13,1.23
18,1.93,11.22,45.46,0.82,1.44,-1.91,13.39,5.45,-91.41,0.27
19,0.38,12.37,46.31,0.82,1.44,-1.91,13.39,5.45,-91.41,0.27
20,0.38,12.37,46.31,0.82,1.15,0.46,14.94,1.13,-91.41,0.27
21,1.98,12.37,46.31,0.82,1.15,0.46,14.94,1.13,-91.36,0.04
22,1.98,14.26,45.46,2.24,2.31,0.46,14.94,1.13,-91.36,0.04
23,1.98,14.26,45.46,2.24,2.31,-0.88,17.41,6.18,-91.51,0.04
24,23.35,3.65,45.46,2.24,2.31,-0.88,17.41,6.18,-91.51,0.1

0,1.91,12.43,46.66,16.89,-2.8,-4.33,19.41,2.77,-124.87,1.06
1,1.91,12.43,46.66,16.89,-2.8,-2.17,15.29,5.28,-125.38,1.06
2,7.49,10.0,46.66,16.89,-2.8,-2.17,15.29,5.28,-125.38,0.22
3,7.49,10.0,51.2,8.54,0.86,1.82,15.29,5.28,-125.38,0.22
4,7.49,10.0,51.2,8.54,0.86,1.82,11.84,3.71,-125.38,-2.8
5,6.24,10.5,47.89,8.54,0.86,1.82,11.84,3.71,-125.38,-2.8
6,6.24,10.5,47.89,4.57,-0.21,-1.52,11.84,3.71,-125.38,-2.8
7,6.24,10.5,47.89,4.57,-0.21,-1.52,12.59,5.83,-124.94,-0.28
8,0.74,11.01,48.29,4.57,-0.21,-1.52,12.59,5.83,-124.94,-0.28
9,0.74,11.01,48.29,5.14,2.7,4.17,12.89,5.83,-124.94,-0.28
10,0.74,11.01,48.29,5.14,2.7,4.17,12.89,-1.67,-124.46,-0.17
11,1.42,11.61,49.44,2.08,2.7,4.17,12.89,-1.67,-124.46,-0.17
12,1.42,11.61,49.44,2.08,2.14,-1.29,13.4,1.71,-124.46,-0.17
13,4.94,11.61,49.44,2.08,2.14,-1.29,13.4,1.71,-124.48,0.26
14,4.94,10.64,47.87,3.5,1.52,-1.29,13.4,1.71,-124.48,0.26
15,4.94,10.64,47.87,3.5,1.52,1.18,12.9,3.77,-124.53,0.26
16,3.3,9.25,47.87,3.5,1.52,1.18,12.9,3.77,-124.53,0.31
17,3.3,9.25,47.28,0.36,1.3,-2.52,12.9,3.77,-124.53,0.31
18,3.3,9.25,47.28,0.36,1.3,-2.52,11.47,5.46,-124.67,2.48
19,10.85,7.34,49.12,0.36,1.3,-2.52,11.47,5.46,-124.67,2.48
20,10.85,7.34,49.12,2.83,3.64,-2.52,7.48,5.46,-124.67,2.48
21,10.85,7.34,49.12,2.83,3.64,2.96,7.48,14.14,-124.6,0.1
22,28.01,-9.99,59.48,9.34,3.64,2.96,7.48,14.14,-124.6,0.1
23,28.01,-9.99,59.48,9.34,10.27,10.71,-13.95,42.19,-124.6,0.1
24,84.16,-9.99,59.48,9.34,10.27,10.71,-13.95,42.19,-122.8,0.27

0,0.95,11.87,48.43,-0.5,-0.66,-7.08,7.87,5.52,-147.11,0.06
1,0.95,11.87,48.43,-0.5,-0.66,-1.35,12.95,0.16,-147.11,0.06
2,2.55,11.62,48.43,-0.5,-0.66,-1.35,12.95,0.16,-147.53,0.02
3,2.55,11.62,47.34,-0.23,-0.01,-2.18,12.95,0.16,-147.53,0.02
4,2.55,11.62,47.34,-0.23,-0.01,-2.18,13.63,2.14,-147.93,0.02
5,0.22,12.11,47.34,-0.23,-0.01,-2.18,13.63,2.14,-147.93,-0.78
6,0.22,12.11,47.05,-1.07,1.32,-2.13,13.63,2.14,-147.93,-0.78
7,0.22,12.11,47.05,-1.07,1.32,-2.13,14.37,1.25,-148.14,1.48
8,-0.28,10.72,46.95,-1.07,1.32,-2.13,14.37,1.25,-148.14,1.48
9,-0.28,10.72,46.95,4.32,1.63,-1.77,12.29,1.25,-148.14,1.48
10,-0.28,10.72,46.95,4.32,1.63,-1.77,12.29,0.41,-148.51,0.2
11,-0.33,9.88,46.98,2.65,1.63,-1.77,12.29,0.41,-148.51,0.2
12,-0.33,9.88,46.98,2.65,1.31,-2.02,11.86,0.57,-148.51,0.2
13,-0.33,9.88,46.98,2.65,1.31,-2.02,11.86,0.57,-148.84,0.42
14,2.68,8.4,48.25,2.2,2.66,-2.02,11.86,0.57,-148.84,0.42
15,2.68,8.4,48.25,2.2,2.66,-1.32,10.17,1.4,-148.84,0.42
16,1.4,8.4,48.25,2.2,2.66,-1.32,10.17,1.4,-149.06,-0.74
17,1.4,9.25,48.63,0.52,0.44,-1.32,10.17,1.4,-149.06,-0.74
18,1.4,9.25,48.63,0.52,0.44,-1.25,10.71,2.3,-149.22,-0.74
19,2.84,9.51,48.63,0.52,0.44,-1.25,10.71,2.3,-149.22,0.25
20,2.84,9.51,49.42,1.82,2.13,-1.25,10.71,2.3,-149.22,0.25
21,2.84,9.51,49.42,1.82,2.13,1.48,11.11,3.28,-149.17,0.25
22,15.46,4.09,51.33,1.82,2.13,1.48,11.11,3.28,-149.17,0.02
23,15.46,4.09,51.33,2.05,4.61,-0.02,5.97,3.28,-149.17,0.02
24,15.46,4.09,51.33,2.05,4.61,-0.02,5.97,18.03,-149.03,2.7
