
,aX,aY,aZ,gX,gY,gZ,roll,pitch,yaw,vi
0,0.0,0.0,0.0,0.0,0.0,0.0,0.0,0.0,0.0,0.0
1,4.51,2.87,47.33,0.0,0.0,0.0,0.0,0.0,0.0,0.0
2,4.51,2.87,47.33,-1.84,1.86,1.4,3.65,3.9,0.0,0.0
3,0.51,2.87,47.33,-1.84,1.86,1.4,3.65,3.9,52.54,-0.36
4,0.51,3.09,44.21,-1.79,1.86,1.4,3.65,3.9,52.54,-0.36
5,0.51,3.09,44.21,-1.79,-2.87,16.75,4.0,-1.48,52.54,-0.36
6,-10.58,3.09,44.21,-1.79,-2.87,16.75,4.0,-1.48,54.48,-0.16
7,-10.58,1.99,46.16,1.93,1.03,16.75,4.0,-1.48,54.48,-0.16
8,-10.58,1.99,46.16,1.93,1.03,26.37,2.4,-12.77,58.83,0.46
9,-14.02,-0.08,46.16,1.93,1.03,26.37,2.4,-12.77,58.83,0.46
10,-14.02,-0.08,49.36,2.52,2.42,26.37,2.4,-12.77,58.83,0.46
11,-14.02,-0.08,49.36,2.52,2.42,25.44,-0.01,-16.64,62.55,-0.07
12,-14.89,-2.07,49.36,2.52,2.42,25.44,-0.01,-16.64,62.55,-0.07
13,-14.89,-2.07,48.82,2.83,6.39,21.68,-0.01,-16.64,62.55,-0.07
14,-14.89,-2.07,48.82,2.83,6.39,21.68,-2.07,-17.16,66.55,-0.06
15,-14.22,-3.2,48.49,2.83,6.39,21.68,-2.07,-17.16,66.55,-0.06
16,-14.22,-3.2,48.49,2.79,7.22,18.13,-3.38,-17.16,66.55,-0.06
17,-14.22,-3.2,48.49,2.79,7.22,18.13,-3.38,-15.7,69.79,-0.07
18,-8.24,-2.84,47.72,1.14,7.22,18.13,-3.38,-15.7,69.79,-0.07
19,-8.24,-2.84,47.72,1.14,3.27,10.79,-3.37,-9.39,69.79,-0.07
20,-8.24,-2.84,47.72,1.14,3.27,10.79,-3.37,-9.39,71.58,0.95
21,0.12,-2.81,45.4,0.72,0.95,10.79,-3.37,-9.39,71.58,0.95
22,0.12,-2.81,45.4,0.72,0.95,12.3,-3.51,0.28,71.58,0.95
23,1.6,-2.81,45.4,0.72,0.95,12.3,-3.51,0.28,73.68,0.47
24,1.6,-4.38,43.78,7.61,-0.99,28.84,-3.51,0.28,73.68,0.47

0,0.0,0.0,0.0,0.0,0.0,0.0,0.0,0.0,0.0,0.0
1,-7.61,-0.98,0.0,1.4,0.0,0.0,0.0,0.0,0.0,0.0
2,-7.61,-0.98,48.57,1.4,3.56,7.52,-0.86,-8.83,0.0,0.0
3,-7.92,-0.98,48.57,1.4,3.56,7.52,-0.86,-8.83,88.4,-0.02
4,-7.92,-1.31,49.03,-0.16,2.93,7.52,-0.86,-8.83,88.4,-0.02
5,-7.92,-1.31,49.03,-0.16,2.93,5.27,-1.48,-8.45,88.4,-0.02
6,-7.36,-1.31,49.03,-0.16,2.93,5.27,-1.48,-8.45,89.38,-0.57
7,-7.36,-1.52,49.06,0.58,2.93,5.27,-1.48,-8.45,89.38,-0.57
8,-7.36,-1.52,49.06,0.58,2.53,3.17,-1.71,-7.7,89.38,-0.57
9,-6.04,-1.52,49.06,0.58,2.53,3.17,-1.71,-7.7,90.04,-0.17
10,-6.04,-2.22,48.57,1.09,2.04,3.17,-1.71,-7.7,90.04,-0.17
11,-6.04,-2.22,48.57,1.09,2.04,3.3,-2.27,-6.47,90.04,-0.17
12,-6.46,-1.7,48.57,1.09,2.04,3.3,-2.27,-6.47,90.52,-0.24
13,-6.46,-1.7,50.12,0.27,3.17,3.89,-2.27,-6.47,90.52,-0.24
14,-6.46,-1.7,50.12,0.27,3.17,3.89,-2.25,-6.94,91.21,-0.32
15,-5.04,-2.58,49.19,0.27,3.17,3.89,-2.25,-6.94,91.21,-0.32
16,-5.04,-2.58,49.19,-1.36,1.8,4.95,-2.93,-6.94,91.21,-0.32
17,-5.74,-2.58,49.19,-1.36,1.8,4.95,-2.93,-6.22,91.97,-0.15
18,-5.74,-2.73,49.19,-0.26,1.63,4.95,-2.93,-6.22,91.97,-0.15
19,-5.74,-2.73,49.08,-0.26,1.63,5.68,-3.12,-5.68,91.97,-0.15
20,-0.2,-2.73,49.08,-0.26,1.63,5.68,-3.12,-5.68,92.77,0.66
21,-0.2,-2.94,47.76,-0.56,1.63,5.68,-3.12,-5.68,92.77,0.66
22,-0.2,-2.94,47.76,-0.56,-1.47,14.71,-3.76,-1.02,94.34,0.66
23,3.48,-6.34,47.76,-0.56,-1.47,14.71,-3.76,-1.02,94.34,-0.21
24,3.48,-6.34,45.12,5.56,-4.05,27.29,-3.76,-1.02,94.34,-0.21

0,-10.06,-6.05,47.94,2.17,2.74,5.23,-6.68,-11.51,140.66,-0.95
1,-10.06,-6.05,47.94,2.17,2.74,5.23,-7.25,-12.26,141.39,-0.07
2,-11.43,-6.0,48.24,2.17,2.74,5.23,-7.25,-12.26,141.39,-0.07
3,-11.43,-6.0,48.24,1.77,1.19,5.18,-7.25,-12.26,141.39,-0.07
4,-11.43,-6.0,48.24,1.77,1.19,5.18,-7.18,-13.73,142.08,0.38
5,-9.41,-6.69,48.24,1.77,1.19,5.18,-7.18,-13.73,142.08,0.38
6,-9.41,-6.69,47.62,0.45,2.83,4.66,-7.91,-13.73,142.08,0.38
7,-9.41,-6.69,47.62,0.45,2.83,4.66,-7.91,-11.57,142.81,-0.99
8,-12.59,-6.48,49.38,1.1,2.83,4.66,-7.91,-11.57,142.81,-0.99
9,-12.59,-6.48,49.38,1.1,0.81,2.81,-7.72,-12.56,142.81,-0.99
10,-10.4,-7.15,49.38,1.1,0.81,2.81,-7.72,-12.56,143.47,-0.08
11,-10.4,-7.15,48.89,0.6,2.09,2.81,-7.72,-12.56,143.47,-0.08
12,-10.4,-7.15,48.89,0.6,2.09,4.64,-8.24,-12.34,144.11,-0.08
13,-10.12,-7.97,48.89,0.6,2.09,4.64,-8.24,-12.34,144.11,-0.19
14,-10.12,-7.97,47.8,-0.94,0.38,4.07,-8.24,-12.34,144.11,-0.19
15,-10.12,-7.97,47.8,-0.94,0.38,4.07,-9.22,-11.74,144.8,-0.01
16,-10.78,-7.45,48.9,-0.94,0.38,4.07,-9.22,-11.74,144.8,-0.01
17,-10.78,-7.45,48.9,0.63,0.3,5.84,-8.76,-11.74,144.8,-0.01
18,-7.89,-7.45,48.9,0.63,0.3,5.84,-8.76,-12.34,145.59,0.97
19,-7.89,-8.76,48.01,-1.16,0.3,5.84,-8.76,-12.34,145.59,0.97
20,-7.89,-8.76,48.01,-1.16,1.46,9.74,-10.25,-8.25,145.59,0.97
21,-5.64,-8.76,48.01,-1.16,1.46,9.74,-10.25,-8.25,146.91,0.32
22,-5.64,-13.04,46.07,0.93,1.68,9.74,-10.25,-8.25,146.91,0.32
23,-5.64,-13.04,46.07,0.93,1.68,24.01,-15.23,-8.42,149.53,0.32
24,-81.91,-29.85,46.07,0.93,1.68,24.01,-15.23,-8.42,149.53,-10.1

0,-9.75,-2.45,46.97,-0.32,2.98,2.74,-3.39,-13.99,-159.36,-0.54
1,-9.75,-2.45,46.97,-0.32,2.98,2.74,-3.05,-11.88,-158.8,-0.13
2,-10.03,-2.11,45.99,-0.32,2.98,2.74,-3.05,-11.88,-158.8,-0.13
3,-10.03,-2.11,45.99,-1.21,4.06,5.17,-2.73,-11.88,-158.8,-0.13
4,-10.19,-2.11,45.99,-1.21,4.06,5.17,-2.73,-12.71,-158.1,-0.17
5,-10.19,-2.6,48.36,0.44,4.06,5.17,-2.73,-12.71,-158.1,-0.17
6,-10.19,-2.6,48.36,0.44,2.68,4.57,-3.06,-12.39,-158.1,-0.17
7,-10.01,-2.6,48.36,0.44,2.68,4.57,-3.06,-12.39,-157.4,-0.34
8,-10.01,-2.92,49.74,-0.2,1.83,4.57,-3.06,-12.39,-157.4,-0.34
9,-10.01,-2.92,49.74,-0.2,1.83,3.74,-3.3,-10.95,-156.75,-0.34
10,-10.3,-3.3,49.74,-0.2,1.83,3.74,-3.3,-10.95,-156.75,-0.61
11,-10.3,-3.3,49.93,-0.66,2.09,4.69,-3.3,-10.95,-156.75,-0.61
12,-10.3,-3.3,49.93,-0.66,2.09,4.69,-3.41,-12.85,-155.95,-0.61
13,-10.26,-3.14,49.93,-0.66,2.09,4.69,-3.41,-12.85,-155.95,-0.06
14,-10.26,-3.14,47.78,-0.47,1.12,3.88,-3.41,-12.85,-155.95,-0.06
15,-10.26,-3.14,47.78,-0.47,1.12,3.88,-3.68,-12.37,-155.31,0.08
16,-9.37,-3.54,48.85,-0.47,1.12,3.88,-3.68,-12.37,-155.31,0.08
17,-9.37,-3.54,48.85,0.38,2.25,3.77,-4.05,-12.37,-155.31,0.08
18,-9.37,-3.54,48.85,0.38,2.25,3.77,-4.05,-9.76,-154.6,0.14
19,-5.6,-4.8,46.55,0.42,2.25,3.77,-4.05,-9.76,-154.6,0.14
20,-5.6,-4.8,46.55,0.42,3.17,7.95,-6.17,-6.85,-154.6,0.14
21,-18.33,-4.8,46.55,0.42,3.17,7.95,-6.17,-6.85,-153.77,-0.07
22,-18.33,-14.44,55.25,4.25,6.46,7.95,-6.17,-6.85,-153.77,-0.07
23,-18.33,-14.44,55.25,4.25,6.46,14.71,-13.09,-23.85,-151.66,-0.07
24,-85.39,-14.44,55.25,4.25,6.46,14.71,-13.09,-23.85,-151.66,-0.11

0,-5.8,-11.82,46.94,-1.23,-0.96,6.15,-15.42,-5.4,-122.11,-0.56
1,-5.8,-11.82,46.94,-1.23,-0.96,6.15,-14.2,-8.84,-121.41,-0.07
2,-7.68,-11.98,46.94,-1.23,-0.96,6.15,-14.2,-8.84,-121.41,-0.07
3,-7.68,-11.98,47.03,-1.65,-2.25,3.43,-14.2,-8.84,-121.41,-0.07
4,-7.68,-11.98,47.03,-1.65,-2.25,3.43,-14.09,-9.24,-120.56,-0.19
5,-8.25,-11.61,47.74,-1.65,-2.25,3.43,-14.09,-9.24,-120.56,-0.19
6,-8.25,-11.61,47.74,-2.93,-1.17,3.11,-13.73,-9.24,-120.56,-0.19
7,-8.16,-11.61,47.74,-2.93,-1.17,3.11,-13.73,-8.86,-120.07,-0.42
8,-8.16,-11.35,47.47,-1.65,-1.17,3.11,-13.73,-8.86,-120.07,-0.42
9,-8.16,-11.35,47.47,-1.65,-0.58,3.75,-13.53,-9.49,-120.07,-0.42
10,-8.2,-11.35,47.47,-1.65,-0.58,3.75,-13.53,-9.49,-119.48,0.01
11,-8.2,-11.91,48.58,-0.75,-5.63,3.75,-13.53,-9.49,-119.48,0.01
12,-8.2,-11.91,48.58,-0.75,-5.63,5.03,-13.97,-10.57,-118.87,0.01
13,-8.86,-10.52,48.58,-0.75,-5.63,5.03,-13.97,-10.57,-118.87,0.35
14,-8.86,-10.52,47.31,-3.89,0.94,5.03,-13.97,-10.57,-118.87,0.35
15,-8.86,-10.52,47.31,-3.89,0.94,6.43,-12.9,-10.02,-118.04,0.24
16,-7.63,-12.47,47.31,-3.89,0.94,6.43,-12.9,-10.02,-118.04,0.24
17,-7.63,-12.47,49.51,-0.03,-3.64,11.12,-12.9,-10.02,-118.04,0.24
18,-7.63,-12.47,49.51,-0.03,-3.64,11.12,-13.71,-9.36,-116.63,-0.16
19,-1.04,-14.95,46.62,-0.03,-3.64,11.12,-13.71,-9.36,-116.63,-0.16
20,-1.04,-14.95,46.62,-1.41,-1.57,20.88,-17.11,-9.36,-116.63,-0.16
21,-1.04,-14.95,46.62,-1.41,-1.57,20.88,-17.11,2.56,-114.57,-0.32
22,-6.07,-16.53,48.31,-1.41,-1.57,20.88,-17.11,2.56,-114.57,-0.32
23,-6.07,-16.53,48.31,-4.15,3.98,35.83,-20.08,2.56,-114.57,-0.32
24,-29.32,-16.53,48.31,-4.15,3.98,35.83,-20.08,-16.25,-109.13,-0.25

0,-6.92,-8.41,51.19,-0.34,-5.35,2.58,-9.92,-15.85,-65.11,-0.21
1,-6.92,-8.41,51.19,-0.34,3.16,1.86,-9.03,-11.04,-65.11,-0.21
2,-11.23,-8.41,51.19,-0.34,3.16,1.86,-9.03,-11.04,-64.74,-1.83
3,-11.23,-8.92,46.3,-3.06,5.02,1.86,-9.03,-11.04,-64.74,-1.83
4,-11.23,-8.92,46.3,-3.06,5.02,3.77,-9.53,-15.0,-63.85,-1.83
5,-10.55,-6.35,46.3,-3.06,5.02,3.77,-9.53,-15.0,-63.85,0.62
6,-10.55,-6.35,46.65,-4.57,10.39,3.04,-9.53,-15.0,-63.85,0.62
7,-10.55,-6.35,46.65,-4.57,10.39,3.04,-7.25,-11.82,-63.32,0.01
8,-8.24,-7.21,48.94,-4.57,10.39,3.04,-7.25,-11.82,-63.32,0.01
9,-8.24,-7.21,48.94,2.82,-1.19,4.29,-7.25,-11.82,-63.32,0.01
10,-8.24,-7.21,48.94,2.82,-1.19,4.29,-8.36,-9.02,-62.78,0.01
11,-7.56,-7.99,48.17,2.82,-1.19,4.29,-8.36,-9.02,-62.78,0.19
12,-7.56,-7.99,48.17,3.32,-0.58,8.93,-9.2,-9.02,-62.78,0.19
13,-7.56,-7.99,48.17,3.32,-0.58,8.93,-9.2,-10.37,-61.57,-0.52
14,-8.65,-8.82,47.97,3.32,-0.58,8.93,-9.2,-10.37,-61.57,-0.52
15,-8.65,-8.82,47.97,3.65,-1.5,9.99,-9.2,-10.37,-61.57,-0.52
16,-8.65,-8.82,47.97,3.65,-1.5,9.99,-10.83,-9.98,-60.07,-0.15
17,-6.8,-10.81,46.18,2.13,-1.5,9.99,-10.83,-9.98,-60.07,-0.15
18,-6.8,-10.81,46.18,2.13,0.04,14.51,-13.37,-10.29,-60.07,-0.15
19,-15.62,-10.81,46.18,2.13,0.04,14.51,-13.37,-10.29,-57.98,-0.13
20,-15.62,-12.76,51.29,2.58,0.04,14.51,-13.37,-10.29,-57.98,-0.13
21,-15.62,-12.76,51.29,2.58,-7.71,15.04,-13.95,-20.4,-57.98,-0.13
22,-39.51,-12.76,51.29,2.58,-7.71,15.04,-13.95,-20.4,-55.65,-5.89
23,-39.51,-32.74,54.12,-6.61,-14.51,15.04,-13.95,-20.4,-55.65,-5.89
24,-39.51,-32.74,54.12,-6.61,-14.51,-6.27,-29.77,-49.84,-55.65,-5.89

0,-9.69,-3.81,47.86,-1.34,3.22,4.11,-2.86,-15.17,-31.11,-0.18
1,-9.69,-3.81,47.86,-1.34,1.96,5.95,-4.17,-12.82,-31.11,-0.18
2,-13.56,-3.81,47.86,-1.34,1.96,5.95,-4.17,-12.82,-30.54,-0.26
3,-13.56,-3.35,48.09,0.24,1.96,5.95,-4.17,-12.82,-30.54,-0.26
4,-13.56,-3.35,48.09,0.24,0.38,6.85,-3.86,-12.82,-30.54,-0.26
5,-11.55,-3.35,48.09,0.24,0.38,6.85,-3.86,-15.0,-29.5,0.03
6,-11.55,-3.45,48.98,-1.52,0.38,6.85,-3.86,-15.0,-29.5,0.03
7,-11.55,-3.45,48.98,-1.52,0.23,4.66,-4.14,-13.32,-29.5,0.03
8,-12.21,-3.45,48.98,-1.52,0.23,4.66,-4.14,-13.32,-28.64,-0.29
9,-12.21,-3.54,47.13,-0.02,1.83,4.66,-4.14,-13.32,-28.64,-0.29
10,-12.21,-3.54,47.13,-0.02,1.83,5.47,-4.12,-14.47,-27.8,-0.29
11,-10.83,-3.45,47.13,-0.02,1.83,5.47,-4.12,-14.47,-27.8,-0.29
12,-10.83,-3.45,47.82,-1.08,0.84,5.47,-4.12,-14.47,-27.8,-0.29
13,-10.83,-3.45,47.82,-1.08,0.84,5.32,-3.94,-13.36,-26.96,-0.29
14,-12.95,-3.35,47.82,-1.08,0.84,5.32,-3.94,-13.36,-26.96,-0.73
15,-12.95,-3.35,46.84,-0.63,-0.49,4.06,-3.94,-13.36,-26.96,-0.73
16,-12.95,-3.35,46.84,-0.63,-0.49,4.06,-4.38,-14.81,-26.14,-0.13
17,-11.35,-4.26,47.06,-0.63,-0.49,4.06,-4.38,-14.81,-26.14,-0.13
18,-11.35,-4.26,47.06,0.6,1.88,3.85,-5.11,-14.81,-26.14,-0.13
19,-11.35,-4.26,47.06,0.6,1.88,3.85,-5.11,-13.59,-25.56,-0.07
20,-10.27,-5.54,48.39,-0.24,1.88,3.85,-5.11,-13.59,-25.56,-0.07
21,-10.27,-5.54,48.39,-0.24,0.24,5.91,-6.6,-12.37,-25.56,-0.07
22,-11.47,-5.54,48.39,-0.24,0.24,5.91,-6.6,-12.37,-24.81,-0.06
23,-11.47,-11.73,45.78,0.29,2.67,5.91,-6.6,-12.37,-24.81,-0.06
24,-11.47,-11.73,45.78,0.29,2.67,10.05,-13.17,-12.37,-24.81,-0.06

0,-17.36,-0.39,46.01,-1.19,0.42,9.17,-0.14,-20.19,-1.14,0.71
1,-17.36,-0.39,46.01,-1.19,0.86,9.08,-0.25,-21.24,-1.14,0.71
2,-14.45,-1.78,46.01,-1.19,0.86,9.08,-0.25,-21.24,0.04,0.01
3,-14.45,-1.78,47.16,2.16,1.5,3.05,-0.25,-21.24,0.04,0.01
4,-14.45,-1.78,47.16,2.16,1.5,3.05,-1.72,-15.26,0.93,-1.71
5,-17.01,-0.6,47.57,2.16,1.5,3.05,-1.72,-15.26,0.93,-1.71
6,-17.01,-0.6,47.57,2.76,1.69,1.62,-0.86,-15.26,0.93,-1.71
7,-13.51,-0.6,47.57,2.76,1.69,1.62,-0.86,-18.51,1.52,-0.03
8,-13.51,-0.33,47.93,-3.11,1.69,1.62,-0.86,-18.51,1.52,-0.03
9,-13.51,-0.33,47.93,-3.11,0.16,0.25,-0.52,-15.04,1.52,-0.03
10,-12.07,-0.33,47.93,-3.11,0.16,0.25,-0.52,-15.04,1.56,-0.32
11,-12.07,-0.49,46.36,-1.64,0.16,0.25,-0.52,-15.04,1.56,-0.32
12,-12.07,-0.49,46.36,-1.64,4.02,2.99,-0.93,-14.86,1.85,-0.32
13,-15.81,-0.49,46.36,-1.64,4.02,2.99,-0.93,-14.86,1.85,-0.23
14,-15.81,-1.19,46.41,-0.83,4.02,2.99,-0.93,-14.86,1.85,-0.23
15,-15.81,-1.19,46.41,-0.83,1.46,5.31,-1.42,-18.61,1.85,-0.23
16,-14.96,-1.19,46.41,-0.83,1.46,5.31,-1.42,-18.61,2.53,-0.48
17,-14.96,-1.75,46.6,-0.15,0.52,5.31,-1.42,-18.61,2.53,-0.48
18,-14.96,-1.75,46.6,-0.15,0.52,3.56,-2.1,-17.67,3.24,-0.06
19,-12.32,-2.17,48.25,-0.15,0.52,3.56,-2.1,-17.67,3.24,-0.06
20,-12.32,-2.17,48.25,-0.03,1.37,6.12,-2.1,-17.67,3.24,-0.06
21,-12.32,-2.17,48.25,-0.03,1.37,6.12,-2.03,-13.76,3.91,0.08
22,-25.01,-8.22,48.25,-0.03,1.37,6.12,-2.03,-13.76,3.91,0.08
23,-25.01,-8.22,48.52,2.49,0.52,16.76,-9.95,-13.76,3.91,0.08
24,-25.01,-8.22,48.52,2.49,0.52,16.76,-9.95,-31.15,6.1,0.08

0,-14.36,-2.83,46.07,0.51,1.96,4.55,-3.02,-23.4,41.29,-0.16
1,-14.36,-2.83,46.07,0.51,1.96,4.55,-3.13,-18.58,41.62,-0.16
2,-16.67,-3.06,46.07,0.51,1.96,4.55,-3.13,-18.58,41.62,-0.31
3,-16.67,-3.06,46.11,0.14,2.89,3.66,-3.13,-18.58,41.62,-0.31
4,-16.67,-3.06,46.11,0.14,2.89,3.66,-3.44,-18.04,42.27,0.71
5,-15.81,-3.17,48.97,0.14,2.89,3.66,-3.44,-18.04,42.27,0.71
6,-15.81,-3.17,48.97,-0.07,0.03,8.53,-3.44,-18.04,42.27,0.71
7,-15.81,-3.17,48.97,-0.07,0.03,8.53,-3.96,-19.7,43.41,-0.22
8,-19.54,-3.23,45.68,-0.12,0.03,8.53,-3.96,-19.7,43.41,-0.22
9,-19.54,-3.23,45.68,-0.12,2.26,7.1,-4.93,-19.7,43.41,-0.22
10,-19.54,-3.23,45.68,-0.12,2.26,7.1,-4.93,-21.67,44.85,-0.17
11,-19.06,-4.32,45.72,-1.25,2.26,7.1,-4.93,-21.67,44.85,-0.17
12,-19.06,-4.32,45.72,-1.25,-0.56,7.34,-5.42,-21.67,44.85,-0.17
13,-16.72,-4.21,45.72,-1.25,-0.56,7.34,-5.42,-22.58,45.94,0.08
14,-16.72,-4.21,45.05,-1.82,1.12,7.34,-5.42,-22.58,45.94,0.08
15,-16.72,-4.21,45.05,-1.82,1.12,7.75,-5.5,-20.3,47.2,0.08
16,-16.31,-4.14,45.05,-1.82,1.12,7.75,-5.5,-20.3,47.2,-0.06
17,-16.31,-4.14,44.22,0.34,1.72,8.8,-5.5,-20.3,47.2,-0.06
18,-16.31,-4.14,44.22,0.34,1.72,8.8,-5.68,-20.02,48.53,-0.18
19,-12.95,-6.68,49.09,0.34,1.72,8.8,-5.68,-20.02,48.53,-0.18
20,-12.95,-6.68,49.09,1.47,-0.12,11.75,-8.02,-20.02,48.53,-0.18
21,-16.17,-6.68,49.09,1.47,-0.12,11.75,-8.02,-14.26,50.19,-0.13
22,-16.17,-8.55,47.59,-1.41,-0.12,11.75,-8.02,-14.26,50.19,-0.13
23,-16.17,-8.55,47.59,-1.41,7.16,18.7,-14.29,-26.11,50.19,-0.13
24,-98.16,-8.55,47.59,-1.41,7.16,18.7,-14.29,-26.11,52.69,-25.48

0,-14.13,-0.56,48.93,1.26,5.14,1.14,-1.82,-13.85,74.22,-0.17
1,-14.13,-0.56,48.93,1.26,1.53,3.64,-0.53,-15.39,74.22,-0.17
2,-11.01,-0.56,48.93,1.26,1.53,3.64,-0.53,-15.39,74.66,-0.3
3,-11.01,-2.98,50.47,8.15,1.77,3.64,-0.53,-15.39,74.66,-0.3
4,-11.01,-2.98,50.47,8.15,1.77,2.96,-2.75,-14.52,74.66,-0.3
5,-11.23,-1.35,50.47,8.15,1.77,2.96,-2.75,-14.52,75.03,0.16
6,-11.23,-1.35,44.87,-6.37,-1.28,-3.86,-2.75,-14.52,75.03,0.16
7,-11.23,-1.35,44.87,-6.37,-1.28,-3.86,-1.8,-14.23,74.38,-0.64
8,-9.25,-2.3,44.87,-6.37,-1.28,-3.86,-1.8,-14.23,74.38,-0.64
9,-9.25,-2.3,46.95,0.11,2.11,-3.86,-1.8,-14.23,74.38,-0.64
10,-9.25,-2.3,46.95,0.11,2.11,-1.17,-2.54,-8.53,73.91,-0.64
11,-9.13,-2.94,46.95,0.11,2.11,-1.17,-2.54,-8.53,73.91,-1.85
12,-9.13,-2.94,48.29,-2.26,0.27,4.3,-2.54,-8.53,73.91,-1.85
13,-9.13,-2.94,48.29,-2.26,0.27,4.3,-3.23,-9.35,74.58,1.49
14,-9.15,-3.03,48.46,-2.26,0.27,4.3,-3.23,-9.35,74.58,1.49
15,-9.15,-3.03,48.46,-2.91,-1.32,11.66,-3.24,-9.35,74.58,1.49
16,-6.22,-3.03,48.46,-2.91,-1.32,11.66,-3.24,-10.31,76.31,0.15
17,-6.22,-2.52,45.14,-8.07,-1.32,11.66,-3.24,-10.31,76.31,0.15
18,-6.22,-2.52,45.14,-8.07,-2.76,24.8,-8.13,-13.13,76.31,0.15
19,-16.06,-2.52,45.14,-8.07,-2.76,24.8,-8.13,-13.13,78.92,-0.07
20,-16.06,-6.7,46.97,1.01,-2.56,24.8,-8.13,-13.13,78.92,-0.07
21,-16.06,-6.7,46.97,1.01,-2.56,30.05,-9.17,-20.77,83.8,-0.21
22,-55.97,-17.65,46.97,1.01,-2.56,30.05,-9.17,-20.77,83.8,-0.21
23,-55.97,-17.65,68.83,0.67,-0.53,30.05,-9.17,-20.77,83.8,-0.21
24,-55.97,-17.65,68.83,0.67,-0.53,1.65,-15.47,-53.06,87.65,-0.19

0,-29.48,-2.81,45.48,2.63,3.06,39.45,-3.32,-41.19,101.51,-0.16
1,-29.48,-2.81,45.48,2.63,3.06,19.95,-3.12,-29.06,105.53,-0.16
2,-22.81,-2.81,45.48,2.63,3.06,19.95,-3.12,-29.06,105.53,2.47
3,-22.81,-1.04,49.79,8.93,-1.4,19.95,-3.12,-29.06,105.53,2.47
4,-22.81,-1.04,49.79,8.93,-1.4,17.54,-1.48,-28.49,108.73,2.47
5,-17.63,-1.9,49.79,8.93,-1.4,17.54,-1.48,-28.49,108.73,-0.11
6,-17.63,-1.9,43.94,1.23,3.91,8.62,-1.48,-28.49,108.73,-0.11
7,-17.63,-1.9,43.94,1.23,3.91,8.62,-2.96,-20.74,110.49,-0.11
8,-17.73,-2.74,47.16,1.23,3.91,8.62,-2.96,-20.74,110.49,-0.13
9,-17.73,-2.74,47.16,2.57,2.56,9.47,-3.32,-20.74,110.49,-0.13
10,-16.6,-2.74,47.16,2.57,2.56,9.47,-3.32,-20.39,112.14,0.57
11,-16.6,-4.35,47.21,3.56,2.56,9.47,-3.32,-20.39,112.14,0.57
12,-16.6,-4.35,47.21,3.56,1.97,7.57,-5.69,-20.39,112.14,0.57
13,-18.37,-4.35,47.21,3.56,1.97,7.57,-5.69,-20.98,113.54,-1.54
14,-18.37,-5.19,47.06,0.23,1.97,7.57,-5.69,-20.98,113.54,-1.54
15,-18.37,-5.19,47.06,0.23,1.16,0.49,-6.32,-20.01,113.54,-1.54
16,-15.29,-5.19,47.06,0.23,1.16,0.49,-6.32,-20.01,114.22,-0.32
17,-15.29,-4.76,46.23,-0.42,3.41,0.49,-6.32,-20.01,114.22,-0.32
18,-15.29,-4.76,46.23,-0.42,3.41,3.12,-5.7,-18.87,114.59,-0.32
19,-15.55,-11.86,46.23,-0.42,3.41,3.12,-5.7,-18.87,114.59,-0.33
20,-15.55,-11.86,45.25,-0.16,4.32,5.37,-5.7,-18.87,114.59,-0.33
21,-15.55,-11.86,45.25,-0.16,4.32,5.37,-12.01,-20.72,115.06,-12.06
22,-90.88,-35.85,45.25,-0.16,4.32,5.37,-12.01,-20.72,115.06,-12.06
23,-90.88,-35.85,51.26,-8.53,3.93,-39.41,-12.01,-20.72,115.06,-12.06
24,-90.88,-35.85,51.26,-8.53,3.93,-39.41,-35.14,-61.27,114.37,-0.22

0,-18.48,-7.15,48.69,-0.77,-2.08,16.62,-9.12,-28.92,157.14,-0.1
1,-18.48,-7.15,48.69,-0.77,-2.08,9.63,-8.09,-20.05,159.25,-0.1
2,-14.5,-7.15,48.69,-0.77,-2.08,9.63,-8.09,-20.05,159.25,-0.19
3,-14.5,-4.52,45.9,1.31,-0.59,9.63,-8.09,-20.05,159.25,-0.19
4,-14.5,-4.52,45.9,1.31,-0.59,9.59,-6.32,-19.02,160.98,-0.19
5,-12.84,-5.8,45.9,1.31,-0.59,9.59,-6.32,-19.02,160.98,-0.29
6,-12.84,-5.8,48.48,1.1,-2.63,9.07,-6.32,-19.02,160.98,-0.29
7,-12.84,-5.8,48.48,1.1,-2.63,9.07,-6.86,-15.93,162.31,-1.71
8,-17.37,-5.05,44.09,1.1,-2.63,9.07,-6.86,-15.93,162.31,-1.71
9,-17.37,-5.05,44.09,-2.46,1.7,7.43,-6.42,-15.93,162.31,-1.71
10,-17.61,-5.05,44.09,-2.46,1.7,7.43,-6.42,-20.04,163.89,-0.25
11,-17.61,-5.81,49.25,1.08,1.7,7.43,-6.42,-20.04,163.89,-0.25
12,-17.61,-5.81,49.25,1.08,-1.26,5.59,-6.93,-19.78,163.89,-0.25
13,-14.73,-5.81,49.25,1.08,-1.26,5.59,-6.93,-19.78,164.84,-0.31
14,-14.73,-5.96,45.31,-1.68,1.13,5.59,-6.93,-19.78,164.84,-0.31
15,-14.73,-5.96,45.31,-1.68,1.13,4.57,-7.22,-17.6,165.64,-0.31
16,-13.39,-6.27,45.31,-1.68,1.13,4.57,-7.22,-17.6,165.64,-0.58
17,-13.39,-6.27,45.56,-0.59,0.52,8.94,-8.3,-17.6,165.64,-0.58
18,-13.39,-6.27,45.56,-0.59,0.52,8.94,-8.3,-14.71,166.81,-0.4
19,-6.82,-10.07,43.37,-0.59,0.52,8.94,-8.3,-14.71,166.81,-0.4
20,-6.82,-10.07,43.37,-1.09,4.67,25.61,-8.3,-14.71,166.81,-0.4
21,-6.82,-10.07,43.37,-1.09,4.67,25.61,-13.33,-8.99,169.22,-0.23
22,-47.94,-20.78,62.54,-1.09,4.67,25.61,-13.33,-8.99,169.22,-0.23
23,-47.94,-20.78,62.54,7.65,-9.21,28.92,-20.76,-8.99,169.22,-0.23
24,-47.94,-20.78,62.54,7.65,-9.21,28.92,-20.76,-40.56,174.78,-0.06

0,-13.68,-2.87,47.29,-1.36,-0.71,2.62,-5.17,-15.24,-157.26,0.07
1,-13.68,-2.87,47.29,-1.36,0.39,3.63,-3.84,-16.16,-157.26,0.07
2,-12.73,-2.87,47.29,-1.36,0.39,3.63,-3.84,-16.16,-156.57,-0.25
3,-12.73,-3.81,46.01,-1.58,1.97,3.63,-3.84,-16.16,-156.57,-0.25
4,-12.73,-3.81,46.01,-1.58,1.97,2.55,-4.47,-14.8,-156.57,-0.25
5,-15.47,-3.75,46.01,-1.58,1.97,2.55,-4.47,-14.8,-156.13,-1.09
6,-15.47,-3.75,47.56,0.94,2.78,2.55,-4.47,-14.8,-156.13,-1.09
7,-15.47,-3.75,47.56,0.94,2.78,1.65,-4.2,-15.19,-155.63,-1.09
8,-12.65,-3.59,47.56,0.94,2.78,1.65,-4.2,-15.19,-155.63,-0.25
9,-12.65,-3.59,48.75,0.63,0.01,1.34,-4.2,-15.19,-155.63,-0.25
10,-12.65,-3.59,48.75,0.63,0.01,1.34,-4.28,-15.44,-155.4,-0.02
11,-11.64,-4.62,49.33,0.63,0.01,1.34,-4.28,-15.44,-155.4,-0.02
12,-11.64,-4.62,49.33,2.73,2.99,4.06,-4.95,-15.44,-155.4,-0.02
13,-11.64,-4.62,49.33,2.73,2.99,4.06,-4.95,-14.76,-155.0,-0.33
14,-13.97,-4.29,47.88,2.73,2.99,4.06,-4.95,-14.76,-155.0,-0.33
15,-13.97,-4.29,47.88,0.19,-0.39,2.51,-4.89,-14.76,-155.0,-0.33
16,-12.5,-4.29,47.88,0.19,-0.39,2.51,-4.89,-16.57,-154.39,-0.2
17,-12.5,-5.23,48.29,1.34,-0.67,2.51,-4.89,-16.57,-154.39,-0.2
18,-12.5,-5.23,48.29,1.34,-0.67,2.61,-6.04,-13.88,-154.39,-0.2
19,-10.87,-5.23,48.29,1.34,-0.67,2.61,-6.04,-13.88,-154.04,-0.25
20,-10.87,-5.26,47.96,-1.58,-1.75,2.61,-6.04,-13.88,-154.04,-0.25
21,-10.87,-5.26,47.96,-1.58,-1.75,6.42,-6.37,-12.45,-153.15,-0.25
22,-5.99,-8.68,47.96,-1.58,-1.75,6.42,-6.37,-12.45,-153.15,1.34
23,-5.99,-8.68,47.22,-3.51,-3.49,14.34,-6.37,-12.45,-153.15,1.34
24,-5.99,-8.68,47.22,-3.51,-3.49,14.34,-9.97,-7.34,-151.72,1.34

0,-17.75,-5.97,45.72,0.47,1.48,5.56,-7.65,-16.39,-105.71,-1.28
1,-17.75,-5.97,45.72,0.47,1.48,2.52,-7.27,-19.08,-104.82,-1.28
2,-13.99,-6.02,45.72,0.47,1.48,2.52,-7.27,-19.08,-104.82,1.01
3,-13.99,-6.02,46.5,-0.0,2.0,3.81,-7.27,-19.08,-104.82,1.01
4,-13.99,-6.02,46.5,-0.0,2.0,3.81,-6.85,-17.31,-104.34,-0.96
5,-16.43,-6.0,46.5,-0.0,2.0,3.81,-6.85,-17.31,-104.34,-0.96
6,-16.43,-6.0,45.61,-0.44,0.9,2.18,-6.85,-17.31,-104.34,-0.96
7,-16.43,-6.0,45.61,-0.44,0.9,2.18,-7.35,-19.12,-103.84,-0.23
8,-14.43,-5.81,47.47,-0.44,0.9,2.18,-7.35,-19.12,-103.84,-0.23
9,-14.43,-5.81,47.47,0.74,1.12,3.61,-7.23,-19.12,-103.84,-0.23
10,-13.89,-5.81,47.47,0.74,1.12,3.61,-7.23,-16.72,-103.35,0.05
11,-13.89,-6.92,48.39,-0.68,1.12,3.61,-7.23,-16.72,-103.35,0.05
12,-13.89,-6.92,48.39,-0.68,0.36,4.94,-8.02,-15.75,-103.35,0.05
13,-13.85,-6.92,48.39,-0.68,0.36,4.94,-8.02,-15.75,-102.7,0.16
14,-13.85,-7.08,45.39,-0.29,-1.18,4.94,-8.02,-15.75,-102.7,0.16
15,-13.85,-7.08,45.39,-0.29,-1.18,9.33,-9.02,-18.44,-101.4,0.16
16,-14.31,-7.08,45.39,-0.29,-1.18,9.33,-9.02,-18.44,-101.4,-0.03
17,-14.31,-8.64,46.33,0.78,0.71,11.66,-9.02,-18.44,-101.4,-0.03
18,-14.31,-8.64,46.33,0.78,0.71,11.66,-10.76,-15.08,-99.7,-0.08
19,-13.6,-13.8,42.68,0.78,0.71,11.66,-10.76,-15.08,-99.7,-0.08
20,-13.6,-13.8,42.68,4.04,3.01,19.81,-16.75,-15.08,-99.7,-0.08
21,-13.6,-13.8,42.68,4.04,3.01,19.81,-16.75,-21.67,-97.28,-13.83
22,-99.99,-51.61,36.61,4.04,3.01,19.81,-16.75,-21.67,-97.28,-13.83
23,-99.99,-51.61,36.61,-25.7,-10.9,-31.85,-47.34,-21.67,-97.28,-13.83
24,-99.99,-51.61,36.61,-25.7,-10.9,-31.85,-47.34,-65.89,-97.28,-1.61

0,-12.96,-10.88,47.45,2.92,2.7,14.95,-12.38,-20.27,-53.48,-1.88
1,-12.96,-10.88,47.45,2.92,2.7,17.72,-12.39,-15.51,-50.86,-1.88
2,-15.14,-8.62,47.45,2.92,2.7,17.72,-12.39,-15.51,-50.86,-2.51
3,-15.14,-8.62,46.02,-7.7,8.04,17.72,-12.39,-15.51,-50.86,-2.51
4,-15.14,-8.62,46.02,-7.7,8.04,17.36,-11.25,-18.62,-47.31,-2.51
5,-13.85,-10.41,46.02,-7.7,8.04,17.36,-11.25,-18.62,-47.31,0.3
6,-13.85,-10.41,47.27,3.2,5.32,8.53,-11.25,-18.62,-47.31,0.3
7,-13.85,-10.41,47.27,3.2,5.32,8.53,-12.24,-17.77,-45.32,-0.08
8,-13.88,-10.58,46.71,3.2,5.32,8.53,-12.24,-17.77,-45.32,-0.08
9,-13.88,-10.58,46.71,-0.51,6.62,3.02,-12.24,-17.77,-45.32,-0.08
10,-11.32,-10.58,46.71,-0.51,6.62,3.02,-12.63,-14.19,-44.59,-0.18
11,-11.32,-10.15,46.12,0.74,6.62,3.02,-12.63,-14.19,-44.59,-0.18
12,-11.32,-10.15,46.12,0.74,3.02,5.8,-12.44,-13.41,-44.59,-0.18
13,-11.32,-10.15,46.12,0.74,3.02,5.8,-12.44,-13.41,-43.77,-0.25
14,-9.26,-10.91,47.65,5.7,0.37,5.8,-12.44,-13.41,-43.77,-0.25
15,-9.26,-10.91,47.65,5.7,0.37,6.78,-12.77,-10.27,-42.79,-0.25
16,-7.41,-13.14,47.65,5.7,0.37,6.78,-12.77,-10.27,-42.79,-0.68
17,-7.41,-13.14,47.15,4.24,1.51,14.79,-12.77,-10.27,-42.79,-0.68
18,-7.41,-13.14,47.15,4.24,1.51,14.79,-15.69,-10.47,-40.82,-0.68
19,-1.32,-16.72,47.15,4.24,1.51,14.79,-15.69,-10.47,-40.82,-0.21
20,-1.32,-16.72,46.42,2.68,-0.12,24.03,-15.69,-10.47,-40.82,-0.21
21,-1.32,-16.72,46.42,2.68,-0.12,24.03,-21.72,-1.84,-37.24,-0.21
22,-17.02,-27.79,46.42,2.68,-0.12,24.03,-21.72,-1.84,-37.24,-4.31
23,-17.02,-27.79,51.8,-11.87,2.64,40.78,-21.72,-1.84,-37.24,-4.31
24,-17.02,-27.79,51.8,-11.87,2.64,40.78,-24.98,-28.09,-31.84,-29.49

0,-14.17,-10.53,46.01,0.59,-0.47,19.23,-12.58,-19.51,22.33,-0.09
1,-14.17,-10.53,46.01,0.59,-0.47,15.55,-13.03,-19.51,22.33,-0.09
2,-14.17,-10.53,46.01,0.59,-0.47,15.55,-13.03,-17.03,25.26,-0.25
3,-14.28,-11.39,47.15,4.9,0.09,15.55,-13.03,-17.03,25.26,-0.25
4,-14.28,-11.39,47.15,4.9,0.09,12.53,-14.04,-16.28,25.26,-0.25
5,-15.02,-11.17,47.15,4.9,0.09,12.53,-14.04,-16.28,27.76,-0.7
6,-15.02,-11.17,45.86,4.23,0.19,11.23,-14.04,-16.28,27.76,-0.7
7,-15.02,-11.17,45.86,4.23,0.19,11.23,-13.76,-18.2,29.54,-0.01
8,-13.55,-12.52,45.61,4.23,0.19,11.23,-13.76,-18.2,29.54,-0.01
9,-13.55,-12.52,45.61,2.65,1.24,8.65,-15.24,-18.2,29.54,-0.01
10,-11.77,-12.52,45.61,2.65,1.24,8.65,-15.24,-16.18,31.23,-0.15
11,-11.77,-12.77,47.43,4.16,1.24,8.65,-15.24,-16.18,31.23,-0.15
12,-11.77,-12.77,47.43,4.16,0.89,8.99,-15.65,-14.04,31.23,-0.15
13,-13.05,-12.77,47.43,4.16,0.89,8.99,-15.65,-14.04,32.54,-0.46
14,-13.05,-13.5,43.67,0.08,1.19,8.99,-15.65,-14.04,32.54,-0.46
15,-13.05,-13.5,43.67,0.08,1.19,9.04,-16.82,-15.01,34.12,-0.46
16,-9.27,-15.22,43.67,0.08,1.19,9.04,-16.82,-15.01,34.12,-0.23
17,-9.27,-15.22,45.12,3.55,2.19,10.75,-16.82,-15.01,34.12,-0.23
18,-9.27,-15.22,45.12,3.55,2.19,10.75,-18.51,-12.71,35.84,-0.23
19,-14.62,-17.46,45.12,3.55,2.19,10.75,-18.51,-12.71,35.84,-0.61
20,-14.62,-17.46,47.58,1.26,3.87,13.45,-18.51,-12.71,35.84,-0.61
21,-14.62,-17.46,47.58,1.26,3.87,13.45,-20.57,-20.36,37.74,-0.14
22,-99.99,-57.1,49.61,1.26,3.87,13.45,-20.57,-20.36,37.74,-0.14
23,-99.99,-57.1,49.61,-26.04,-29.87,-61.14,-50.94,-20.36,37.74,-0.14
24,-99.99,-57.1,49.61,-26.04,-29.87,-61.14,-50.94,-64.35,35.31,-3.22

0,-10.42,-5.8,47.71,1.88,6.66,9.8,-6.57,-14.81,85.44,-0.3
1,-10.42,-5.8,47.71,1.88,6.66,9.8,-6.93,-13.13,86.99,-0.3
2,-10.67,-6.62,47.71,1.88,6.66,9.8,-6.93,-13.13,86.99,-0.09
3,-10.67,-6.62,48.6,4.65,4.81,9.81,-6.93,-13.13,86.99,-0.09
4,-10.67,-6.62,48.6,4.65,4.81,9.81,-7.77,-11.25,88.68,-0.19
5,-8.61,-8.29,50.17,4.65,4.81,9.81,-7.77,-11.25,88.68,-0.19
6,-8.61,-8.29,50.17,3.56,1.07,12.3,-9.19,-11.25,88.68,-0.19
7,-8.61,-8.29,50.17,3.56,1.07,12.3,-9.19,-10.53,90.39,-1.17
8,-11.04,-8.91,50.14,0.02,1.07,12.3,-9.19,-10.53,90.39,-1.17
9,-11.04,-8.91,50.14,0.02,-0.26,11.81,-10.04,-13.27,90.39,-1.17
10,-13.1,-8.91,50.14,0.02,-0.26,11.81,-10.04,-13.27,92.56,-0.36
11,-13.1,-8.22,46.63,-2.26,-0.26,11.81,-10.04,-13.27,92.56,-0.36
12,-13.1,-8.22,46.63,-2.26,0.45,8.61,-9.71,-16.77,92.56,-0.36
13,-9.43,-8.22,46.63,-2.26,0.45,8.61,-9.71,-16.77,94.1,-0.07
14,-9.43,-8.91,47.35,0.85,1.11,4.99,-9.71,-16.77,94.1,-0.07
15,-9.43,-8.91,47.35,0.85,1.11,4.99,-10.85,-10.31,95.1,-0.6
16,-10.26,-8.61,47.95,0.85,1.11,4.99,-10.85,-10.31,95.1,-0.6
17,-10.26,-8.61,47.95,0.35,0.52,8.52,-9.68,-10.31,95.1,-0.6
18,-10.26,-8.61,47.95,0.35,0.52,8.52,-9.68,-12.72,96.51,-0.6
19,-8.56,-10.55,46.4,0.35,0.52,8.52,-9.68,-12.72,96.51,0.09
20,-8.56,-10.55,46.4,0.74,2.39,9.68,-13.33,-12.72,96.51,0.09
21,-57.17,-10.55,46.4,0.74,2.39,9.68,-13.33,-11.42,97.74,-0.06
22,-57.17,-29.89,69.66,5.71,2.39,9.68,-13.33,-11.42,97.74,-0.06
23,-57.17,-29.89,69.66,5.71,-8.5,0.81,-24.45,-11.42,97.74,-0.06
24,-99.99,-29.89,69.66,5.71,-8.5,0.81,-24.45,-43.0,99.26,-0.05

0,-11.57,-0.09,52.01,2.18,0.66,9.04,0.18,-12.97,125.1,-0.12
1,-11.57,-0.09,52.01,2.18,0.66,9.04,-0.06,-12.03,126.63,1.78
2,-5.83,0.87,50.0,2.18,0.66,9.04,-0.06,-12.03,126.63,1.78
3,-5.83,0.87,50.0,-3.14,0.94,9.25,0.75,-12.03,126.63,1.78
4,-6.81,0.87,50.0,-3.14,0.94,9.25,0.75,-6.4,128.06,-0.64
5,-6.81,1.38,46.55,-1.23,0.94,9.25,0.75,-6.4,128.06,-0.64
6,-6.81,1.38,46.55,-1.23,0.74,12.96,1.53,-7.33,128.06,-0.64
7,-10.1,1.38,46.55,-1.23,0.74,12.96,1.53,-7.33,130.09,-0.26
8,-10.1,1.12,46.35,0.36,-0.48,12.96,1.53,-7.33,130.09,-0.26
9,-10.1,1.12,46.35,0.36,-0.48,12.72,1.46,-12.02,130.09,-0.26
10,-7.56,1.12,46.35,0.36,-0.48,12.72,1.46,-12.02,132.11,-0.42
11,-7.56,-0.47,47.41,0.82,2.2,12.72,1.46,-12.02,132.11,-0.42
12,-7.56,-0.47,47.41,0.82,2.2,11.2,-0.21,-8.71,134.15,-0.42
13,-9.47,-0.47,48.24,0.82,2.2,11.2,-0.21,-8.71,134.15,0.1
14,-9.47,-0.47,48.24,1.06,3.3,12.3,-0.19,-8.71,134.15,0.1
15,-9.47,-0.47,48.24,1.06,3.3,12.3,-0.19,-12.01,135.97,-0.08
16,-9.53,-1.61,49.48,1.06,3.3,12.3,-0.19,-12.01,135.97,-0.08
17,-9.53,-1.61,49.48,2.03,3.58,7.05,-1.75,-12.01,135.97,-0.08
18,-6.6,-1.61,49.48,2.03,3.58,7.05,-1.75,-10.43,137.65,-0.12
19,-6.6,-1.72,48.54,1.51,3.58,7.05,-1.75,-10.43,137.65,-0.12
20,-6.6,-1.72,48.54,1.51,2.25,8.32,-2.38,-8.09,137.65,-0.12
21,-6.6,-1.72,48.54,1.51,2.25,8.32,-2.38,-8.09,139.02,-0.3
22,-11.93,-9.23,51.89,2.22,2.25,8.32,-2.38,-8.09,139.02,-0.3
23,-11.93,-9.23,51.89,2.22,3.6,7.7,-8.79,-17.16,139.02,-0.3
24,-98.32,-26.44,51.89,2.22,3.6,7.7,-8.79,-17.16,140.23,-14.26

0,-9.64,-1.31,47.56,-2.81,1.68,0.77,-2.75,-10.57,173.28,-0.14
1,-9.64,-1.31,47.56,-2.81,1.68,1.69,-1.72,-12.15,173.28,-0.14
2,-11.05,-1.31,47.56,-2.81,1.68,1.69,-1.72,-12.15,173.47,-0.23
3,-11.05,-1.52,48.28,-1.26,1.73,1.69,-1.72,-12.15,173.47,-0.23
4,-11.05,-1.52,48.28,-1.26,1.73,0.6,-1.57,-10.53,173.65,-0.23
5,-8.79,-1.25,48.28,-1.26,1.73,0.6,-1.57,-10.53,173.65,0.44
6,-8.79,-1.25,48.39,-0.71,1.69,0.6,-1.57,-10.53,173.65,0.44
7,-8.79,-1.25,48.39,-0.71,1.69,3.37,-1.46,-10.01,174.06,0.44
8,-8.02,-1.99,48.39,-0.71,1.69,3.37,-1.46,-10.01,174.06,-0.74
9,-8.02,-1.99,49.01,-0.26,1.68,5.6,-1.46,-10.01,174.06,-0.74
10,-8.02,-1.99,49.01,-0.26,1.68,5.6,-2.06,-9.63,174.77,-0.74
11,-9.97,-2.12,48.9,-0.26,1.68,5.6,-2.06,-9.63,174.77,-0.21
12,-9.97,-2.12,48.9,-0.44,0.47,8.57,-2.25,-12.18,174.77,-0.21
13,-14.22,-2.12,48.9,-0.44,0.47,8.57,-2.25,-12.18,176.09,-1.42
14,-14.22,-1.81,48.16,-0.44,0.47,8.57,-2.25,-12.18,176.09,-1.42
15,-14.22,-1.81,48.16,-0.9,-1.04,4.33,-2.31,-12.18,176.09,-1.42
16,-9.48,-1.81,48.16,-0.9,-1.04,4.33,-2.31,-13.82,177.12,-0.2
17,-9.48,-2.76,48.58,-0.18,-1.04,4.33,-2.31,-13.82,177.12,-0.2
18,-9.48,-2.76,48.58,-0.18,0.3,6.47,-2.99,-10.98,177.12,-0.2
19,-6.34,-2.76,48.58,-0.18,0.3,6.47,-2.99,-10.98,178.01,-0.29
20,-6.34,-4.09,46.62,-0.83,-1.18,6.47,-2.99,-10.98,178.01,-0.29
21,-6.34,-4.09,46.62,-0.83,-1.18,13.85,-5.22,-5.3,178.01,-0.29
22,-3.77,-4.09,46.62,-0.83,-1.18,13.85,-5.22,-5.3,179.35,-0.27
23,-3.77,-11.46,51.67,3.5,-0.6,13.85,-5.22,-5.3,179.35,-0.27
24,-3.77,-11.46,51.67,3.5,-0.6,29.33,-11.53,-11.83,-177.34,-18.44

0,-9.76,-2.76,46.75,-2.21,2.08,2.95,-4.34,-11.01,-135.47,-0.53
1,-9.76,-2.76,46.75,-2.21,2.08,2.95,-3.1,-11.84,-135.03,0.12
2,-8.82,-4.66,47.02,-2.21,2.08,2.95,-3.1,-11.84,-135.03,0.12
3,-8.82,-4.66,47.02,1.17,0.48,4.91,-3.1,-11.84,-135.03,0.12
4,-8.82,-4.66,47.02,1.17,0.48,4.91,-5.6,-11.67,-134.45,-0.02
5,-11.21,-4.73,48.63,1.17,0.48,4.91,-5.6,-11.67,-134.45,-0.02
6,-11.21,-4.73,48.63,2.1,0.18,3.9,-6.12,-11.67,-134.45,-0.02
7,-10.17,-4.73,48.63,2.1,0.18,3.9,-6.12,-12.28,-133.58,-0.29
8,-10.17,-5.05,47.81,1.49,0.18,3.9,-6.12,-12.28,-133.58,-0.29
9,-10.17,-5.05,47.81,1.49,-0.35,4.96,-6.14,-12.6,-132.9,-0.29
10,-8.03,-6.39,47.81,1.49,-0.35,4.96,-6.14,-12.6,-132.9,-0.09
11,-8.03,-6.39,47.93,2.57,0.52,4.96,-6.14,-12.6,-132.9,-0.09
12,-8.03,-6.39,47.93,2.57,0.52,4.99,-7.45,-9.54,-132.12,-0.09
13,-8.23,-6.59,47.93,2.57,0.52,4.99,-7.45,-9.54,-132.12,0.33
14,-8.23,-6.59,46.55,1.66,-0.95,4.99,-7.45,-9.54,-132.12,0.33
15,-8.23,-6.59,46.55,1.66,-0.95,9.34,-8.16,-10.3,-130.97,0.33
16,-9.78,-7.29,46.55,1.66,-0.95,9.34,-8.16,-10.3,-130.97,-0.09
17,-9.78,-7.29,46.67,3.33,0.82,9.87,-8.16,-10.3,-130.97,-0.09
18,-9.78,-7.29,46.67,3.33,0.82,9.87,-9.09,-11.68,-129.52,-0.7
19,-14.67,-19.04,58.47,3.33,0.82,9.87,-9.09,-11.68,-129.52,-0.7
20,-14.67,-19.04,58.47,10.77,-6.18,11.34,-17.64,-11.68,-129.52,-0.7
21,-14.67,-19.04,58.47,10.77,-6.18,11.34,-17.64,-21.88,-127.63,-0.7
22,-73.23,-53.88,73.54,10.77,-6.18,11.34,-17.64,-21.88,-127.63,-19.5
23,-73.23,-53.88,73.54,-6.71,-18.73,-43.42,-36.05,-21.88,-127.63,-19.5
24,-99.99,-53.88,73.54,-6.71,-18.73,-43.42,-36.05,-50.42,-129.36,-0.21

0,-11.35,-4.22,48.89,0.61,3.95,0.76,-7.01,-14.0,-95.38,-0.1
1,-11.35,-4.22,48.89,0.61,3.95,0.76,-4.68,-13.62,-95.14,0.3
2,-9.08,-4.65,47.82,0.61,3.95,0.76,-4.68,-13.62,-95.14,0.3
3,-9.08,-4.65,47.82,-1.27,2.14,0.85,-5.1,-13.62,-95.14,0.3
4,-11.9,-4.65,47.82,-1.27,2.14,0.85,-5.1,-11.88,-95.16,-0.14
5,-11.9,-3.52,47.6,-1.27,2.14,0.85,-5.1,-11.88,-95.16,-0.14
6,-11.9,-3.52,47.6,-0.2,2.66,0.0,-4.39,-11.88,-95.16,-0.14
7,-9.75,-3.52,47.6,-0.2,2.66,0.0,-4.39,-13.61,-94.98,-0.05
8,-9.75,-4.03,49.73,1.89,2.66,0.0,-4.39,-13.61,-94.98,-0.05
9,-9.75,-4.03,49.73,1.89,2.79,0.59,-4.55,-12.15,-94.99,-0.05
10,-10.62,-3.79,49.73,1.89,2.79,0.59,-4.55,-12.15,-94.99,0.05
11,-10.62,-3.79,49.13,-0.22,1.65,0.59,-4.55,-12.15,-94.99,0.05
12,-10.62,-3.79,49.13,-0.22,1.65,0.54,-4.4,-12.7,-94.83,0.05
13,-9.47,-3.94,49.13,-0.22,1.65,0.54,-4.4,-12.7,-94.83,0.16
14,-9.47,-3.94,48.61,-0.54,2.37,0.94,-4.4,-12.7,-94.83,0.16
15,-9.47,-3.94,48.61,-0.54,2.37,0.94,-4.46,-11.56,-94.74,-0.61
16,-8.71,-3.63,48.61,-0.54,2.37,0.94,-4.46,-11.56,-94.74,-0.61
17,-8.71,-3.63,48.51,0.68,2.9,2.12,-4.46,-11.56,-94.74,-0.61
18,-8.71,-3.63,48.51,0.68,2.9,2.12,-4.41,-10.16,-94.47,-0.12
19,-7.85,-4.2,48.14,-0.13,2.9,2.12,-4.41,-10.16,-94.47,-0.12
20,-7.85,-4.2,48.14,-0.13,1.49,7.21,-5.73,-8.85,-94.47,-0.12
21,-6.79,-4.2,48.14,-0.13,1.49,7.21,-5.73,-8.85,-93.68,0.36
22,-6.79,-10.87,49.58,0.71,5.61,7.21,-5.73,-8.85,-93.68,0.36
23,-6.79,-10.87,49.58,0.71,5.61,17.71,-11.59,-12.92,-91.67,0.36
24,-99.99,-10.87,49.58,0.71,5.61,17.71,-11.59,-12.92,-91.67,-14.74

0,-11.03,-8.0,48.65,0.57,0.84,5.71,-8.51,-14.13,-39.2,-0.28
1,-11.03,-8.0,48.65,0.57,0.84,2.74,-8.89,-10.5,-38.54,-0.28
2,-9.17,-8.0,48.65,0.57,0.84,2.74,-8.89,-10.5,-38.54,-0.18
3,-9.17,-7.18,47.32,-1.1,1.36,3.71,-8.89,-10.5,-38.54,-0.18
4,-9.17,-7.18,47.32,-1.1,1.36,3.71,-8.59,-11.72,-38.02,-0.18
5,-7.95,-7.74,47.32,-1.1,1.36,3.71,-8.59,-11.72,-38.02,0.26
6,-7.95,-7.74,47.9,-0.61,1.12,4.69,-8.59,-11.72,-38.02,0.26
7,-7.95,-7.74,47.9,-0.61,1.12,4.69,-9.08,-9.23,-37.36,-0.65
8,-10.64,-6.8,48.93,-0.61,1.12,4.69,-9.08,-9.23,-37.36,-0.65
9,-10.64,-6.8,48.93,-0.09,0.37,7.37,-8.11,-9.23,-37.36,-0.65
10,-8.24,-6.8,48.93,-0.09,0.37,7.37,-8.11,-12.25,-36.31,-0.08
11,-8.24,-7.52,48.09,-1.26,1.18,7.37,-8.11,-12.25,-36.31,-0.08
12,-8.24,-7.52,48.09,-1.26,1.18,7.07,-9.08,-10.04,-36.31,-0.08
13,-9.66,-7.58,48.09,-1.26,1.18,7.07,-9.08,-10.04,-35.18,-0.62
14,-9.66,-7.58,48.94,-0.26,-0.74,7.07,-9.08,-10.04,-35.18,-0.62
15,-9.66,-7.58,48.94,-0.26,-0.74,9.06,-8.97,-12.22,-33.64,-0.62
16,-8.25,-8.78,47.32,-0.26,-0.74,9.06,-8.97,-12.22,-33.64,-0.12
17,-8.25,-8.78,47.32,-0.6,0.78,10.9,-10.42,-12.22,-33.64,-0.12
18,-5.94,-8.78,47.32,-0.6,0.78,10.9,-10.42,-10.11,-32.25,-0.02
19,-5.94,-10.91,47.0,1.45,0.78,10.9,-10.42,-10.11,-32.25,-0.02
20,-5.94,-10.91,47.0,1.45,-1.5,17.72,-12.95,-7.51,-32.25,-0.02
21,-7.41,-10.91,47.0,1.45,-1.5,17.72,-12.95,-7.51,-29.84,-0.15
22,-7.41,-26.67,55.98,0.36,0.2,17.72,-12.95,-7.51,-29.84,-0.15
23,-7.41,-26.67,55.98,0.36,0.2,26.9,-23.7,-12.53,-26.39,-0.15
24,-99.99,-62.98,55.98,0.36,0.2,26.9,-23.7,-12.53,-26.39,-32.6

0,-13.02,-3.82,47.5,0.7,1.61,2.87,-5.26,-15.49,25.18,0.3
1,-13.02,-3.82,47.5,0.7,2.78,2.31,-4.07,-16.64,25.18,0.3
2,-12.22,-3.82,47.5,0.7,2.78,2.31,-4.07,-16.64,25.71,-0.0
3,-12.22,-4.06,48.28,-0.66,1.69,2.31,-4.07,-16.64,25.71,-0.0
4,-12.22,-4.06,48.28,-0.66,1.69,0.38,-4.68,-13.6,25.83,-0.0
5,-11.41,-4.06,48.28,-0.66,1.69,0.38,-4.68,-13.6,25.83,0.21
6,-11.41,-3.91,49.01,-0.15,0.57,0.38,-4.68,-13.6,25.83,0.21
7,-11.41,-3.91,49.01,-0.15,0.57,3.09,-4.56,-13.32,26.2,0.21
8,-12.41,-3.68,49.01,-0.15,0.57,3.09,-4.56,-13.32,26.2,-0.2
9,-12.41,-3.68,47.74,0.04,2.14,4.62,-4.53,-13.32,26.2,-0.2
10,-12.41,-3.68,47.74,0.04,2.14,4.62,-4.53,-14.51,26.85,-0.27
11,-12.03,-4.1,48.5,0.04,2.14,4.62,-4.53,-14.51,26.85,-0.27
12,-12.03,-4.1,48.5,0.62,0.28,6.1,-4.71,-14.51,26.85,-0.27
13,-12.08,-4.1,48.5,0.62,0.28,6.1,-4.71,-13.97,27.77,-0.04
14,-12.08,-4.59,46.68,-1.54,0.28,6.1,-4.71,-13.97,27.77,-0.04
15,-12.08,-4.59,46.68,-1.54,2.54,5.95,-5.49,-13.97,27.77,-0.04
16,-11.73,-4.59,46.68,-1.54,2.54,5.95,-5.49,-12.7,28.73,-0.45
17,-11.73,-4.07,48.51,-1.54,2.54,5.95,-5.49,-12.7,28.73,-0.45
18,-11.73,-4.07,48.51,0.42,-0.05,8.05,-4.94,-12.7,28.73,-0.45
19,-8.04,-5.17,48.51,0.42,-0.05,8.05,-4.94,-14.27,29.88,1.12
20,-8.04,-5.17,45.8,0.57,1.69,14.0,-4.94,-14.27,29.88,1.12
21,-8.04,-5.17,45.8,0.57,1.69,14.0,-6.96,-9.43,31.56,-0.11
22,-13.1,-14.0,45.8,0.57,1.69,14.0,-6.96,-9.43,31.56,-0.11
23,-13.1,-14.0,53.11,5.58,-2.92,21.98,-6.96,-9.43,31.56,-0.11
24,-13.1,-14.0,53.11,5.58,-2.92,21.98,-13.74,-21.92,34.34,-0.11

0,-11.86,-9.48,48.93,-0.18,1.21,6.72,-10.3,-13.33,63.31,0.43
1,-11.86,-9.48,48.93,-0.18,0.33,6.46,-10.61,-14.1,63.31,0.43
2,-11.73,-9.48,48.93,-0.18,0.33,6.46,-10.61,-14.1,64.42,-0.87
3,-11.73,-8.82,50.02,0.01,0.64,6.46,-10.61,-14.1,64.42,-0.87
4,-11.73,-8.82,50.02,0.01,0.64,2.42,-10.07,-12.92,65.08,-0.87
5,-11.08,-8.73,50.02,0.01,0.64,2.42,-10.07,-12.92,65.08,-0.04
6,-11.08,-8.73,47.53,-1.17,0.26,2.25,-10.07,-12.92,65.08,-0.04
7,-11.08,-8.73,47.53,-1.17,0.26,2.25,-10.39,-13.28,65.49,0.16
8,-10.91,-8.91,47.35,-1.17,0.26,2.25,-10.39,-13.28,65.49,0.16
9,-10.91,-8.91,47.35,-0.75,-0.91,2.56,-10.39,-13.28,65.49,0.16
10,-9.98,-8.91,47.35,-0.75,-0.91,2.56,-10.66,-12.71,65.81,-0.31
11,-9.98,-9.11,49.51,-0.75,-0.91,2.56,-10.66,-12.71,65.81,-0.31
12,-9.98,-9.11,49.51,0.67,-0.3,3.76,-10.58,-12.71,65.81,-0.31
13,-10.73,-9.11,49.51,0.67,-0.3,3.76,-10.58,-12.27,66.36,-0.33
14,-10.73,-9.34,47.62,0.67,-0.3,3.76,-10.58,-12.27,66.36,-0.33
15,-10.73,-9.34,47.62,-0.52,-0.25,3.36,-11.01,-12.27,66.36,-0.33
16,-10.15,-9.34,47.62,-0.52,-0.25,3.36,-11.01,-12.41,66.97,-0.31
17,-10.15,-9.47,46.89,-0.82,-0.25,3.36,-11.01,-12.41,66.97,-0.31
18,-10.15,-9.47,46.89,-0.82,0.22,4.59,-11.29,-11.92,66.97,-0.31
19,-10.24,-9.47,46.89,-0.82,0.22,4.59,-11.29,-11.92,67.58,-0.2
20,-10.24,-9.74,46.8,0.49,1.16,4.59,-11.29,-11.92,67.58,-0.2
21,-10.24,-9.74,46.8,0.49,1.16,8.12,-11.71,-11.64,67.58,-0.2
22,-5.77,-9.74,46.8,0.49,1.16,8.12,-11.71,-11.64,68.77,0.61
23,-5.77,-11.66,45.39,0.03,3.05,8.12,-11.71,-11.64,68.77,0.61
24,-5.77,-11.66,45.39,0.03,3.05,17.57,-14.45,-8.8,70.71,-0.11

0,-12.74,-5.84,46.32,1.61,0.93,5.83,-6.27,-18.15,100.29,-0.24
1,-12.74,-5.84,46.32,1.61,0.93,5.44,-6.19,-15.98,101.19,-0.24
2,-13.84,-5.84,46.32,1.61,0.93,5.44,-6.19,-15.98,101.19,-0.21
3,-13.84,-5.07,49.37,1.83,3.1,5.44,-6.19,-15.98,101.19,-0.21
4,-13.84,-5.07,49.37,1.83,3.1,3.83,-5.91,-15.09,101.87,-0.21
5,-11.87,-5.94,49.37,1.83,3.1,3.83,-5.91,-15.09,101.87,0.21
6,-11.87,-5.94,47.62,2.03,2.01,3.99,-5.91,-15.09,101.87,0.21
7,-11.87,-5.94,47.62,2.03,2.01,3.99,-6.82,-13.25,102.54,-0.93
8,-14.58,-5.61,49.26,2.03,2.01,3.99,-6.82,-13.25,102.54,-0.93
9,-14.58,-5.61,49.26,0.99,0.17,3.36,-6.72,-13.25,102.54,-0.93
10,-14.58,-5.61,49.26,0.99,0.17,3.36,-6.72,-16.82,103.32,-0.03
11,-10.8,-6.57,49.37,0.99,0.17,3.36,-6.72,-16.82,103.32,-0.03
12,-10.8,-6.57,49.37,-0.85,1.39,2.95,-7.46,-16.82,103.32,-0.03
13,-13.35,-6.57,49.37,-0.85,1.39,2.95,-7.46,-12.42,103.71,-1.15
14,-13.35,-5.98,46.74,-1.07,1.39,2.95,-7.46,-12.42,103.71,-1.15
15,-13.35,-5.98,46.74,-1.07,0.73,5.82,-7.32,-12.42,103.71,-1.15
16,-11.49,-5.98,46.74,-1.07,0.73,5.82,-7.32,-15.79,104.64,0.39
17,-11.49,-7.1,47.13,-1.35,0.73,5.82,-7.32,-15.79,104.64,0.39
18,-11.49,-7.1,47.13,-1.35,0.86,8.17,-7.96,-14.58,104.64,0.39
19,-10.24,-7.1,47.13,-1.35,0.86,8.17,-7.96,-14.58,105.62,-0.13
20,-10.24,-7.04,47.1,0.84,0.86,8.17,-7.96,-14.58,105.62,-0.13
21,-10.24,-7.04,47.1,0.84,1.52,11.31,-8.54,-12.07,107.26,-0.13
22,-7.06,-7.04,47.1,0.84,1.52,11.31,-8.54,-12.07,107.26,-0.13
23,-7.06,-9.32,46.07,1.87,-0.08,11.31,-8.54,-12.07,107.26,-0.13
24,-7.06,-9.32,46.07,1.87,-0.08,18.44,-12.19,-10.21,109.82,-0.13

0,-17.88,-5.42,46.99,0.02,2.22,11.23,-6.21,-22.88,152.5,-0.19
1,-17.88,-5.42,46.99,0.02,0.42,7.87,-6.71,-21.01,152.5,-0.19
2,-16.21,-5.42,46.99,0.02,0.42,7.87,-6.71,-21.01,153.86,-0.09
3,-16.21,-5.87,47.38,-0.23,2.05,7.87,-6.71,-21.01,153.86,-0.09
4,-16.21,-5.87,47.38,-0.23,2.05,4.81,-6.87,-18.81,154.85,-0.09
5,-14.94,-5.47,47.38,-0.23,2.05,4.81,-6.87,-18.81,154.85,-0.35
6,-14.94,-5.47,46.24,-0.52,3.12,4.41,-6.87,-18.81,154.85,-0.35
7,-14.94,-5.47,46.24,-0.52,3.12,4.41,-6.82,-16.84,155.58,0.79
8,-12.5,-5.9,47.2,-0.52,3.12,4.41,-6.82,-16.84,155.58,0.79
9,-12.5,-5.9,47.2,-1.82,1.46,8.29,-7.01,-16.84,155.58,0.79
10,-13.36,-5.9,47.2,-1.82,1.46,8.29,-7.01,-15.12,156.48,-0.25
11,-13.36,-5.87,47.06,-1.72,1.46,8.29,-7.01,-15.12,156.48,-0.25
12,-13.36,-5.87,47.06,-1.72,3.3,13.58,-6.96,-16.84,156.48,-0.25
13,-16.63,-5.87,47.06,-1.72,3.3,13.58,-6.96,-16.84,158.46,-0.99
14,-16.63,-6.39,46.98,-0.11,3.3,13.58,-6.96,-16.84,158.46,-0.99
15,-16.63,-6.39,46.98,-0.11,1.41,10.75,-7.67,-17.31,158.46,-0.99
16,-11.01,-6.39,46.98,-0.11,1.41,10.75,-7.67,-17.31,160.37,-0.33
17,-11.01,-8.26,44.75,-0.25,3.2,10.75,-7.67,-17.31,160.37,-0.33
18,-11.01,-8.26,44.75,-0.25,3.2,14.04,-10.72,-13.05,162.41,-0.33
19,-7.57,-15.46,44.75,-0.25,3.2,14.04,-10.72,-13.05,162.41,-0.24
20,-7.57,-15.46,42.57,4.16,5.51,14.04,-10.72,-13.05,162.41,-0.24
21,-7.57,-15.46,42.57,4.16,5.51,24.33,-20.28,-10.96,165.59,-0.24
22,-59.51,-42.5,42.57,4.16,5.51,24.33,-20.28,-10.96,165.59,-0.27
23,-59.51,-42.5,84.73,3.18,-19.26,24.33,-20.28,-10.96,165.59,-0.27
24,-59.51,-42.5,84.73,3.18,-19.26,20.13,-25.93,-44.72,169.36,-0.27

0,-19.12,-5.48,48.43,2.11,2.85,21.07,-5.69,-25.87,-152.99,0.87
1,-19.12,-5.48,48.43,2.11,2.85,10.78,-6.47,-21.24,-150.7,0.87
2,-14.87,-5.76,48.43,2.11,2.85,10.78,-6.47,-21.24,-150.7,0.95
3,-14.87,-5.76,48.87,1.78,2.32,5.63,-6.47,-21.24,-150.7,0.95
4,-14.87,-5.76,48.87,1.78,2.32,5.63,-6.93,-18.18,-149.66,-0.42
5,-13.92,-5.08,48.68,1.78,2.32,5.63,-6.93,-18.18,-149.66,-0.42
6,-13.92,-5.08,48.68,0.07,0.66,0.63,-6.02,-18.18,-149.66,-0.42
7,-13.92,-5.08,48.68,0.07,0.66,0.63,-6.02,-15.42,-149.14,0.42
8,-12.27,-3.92,46.62,0.07,0.66,0.63,-6.02,-15.42,-149.14,0.42
9,-12.27,-3.92,46.62,-0.41,1.45,1.38,-4.75,-15.42,-149.14,0.42
10,-8.57,-3.92,46.62,-0.41,1.45,1.38,-4.75,-15.44,-148.9,0.87
11,-8.57,-4.37,46.69,-1.55,1.45,1.38,-4.75,-15.44,-148.9,0.87
12,-8.57,-4.37,46.69,-1.55,0.92,2.68,-5.24,-10.61,-148.9,0.87
13,-10.87,-4.37,46.69,-1.55,0.92,2.68,-5.24,-10.61,-148.79,-0.18
14,-10.87,-3.5,46.06,0.42,0.92,2.68,-5.24,-10.61,-148.79,-0.18
15,-10.87,-3.5,46.06,0.42,3.17,5.97,-4.77,-12.73,-148.79,-0.18
16,-9.86,-3.5,46.06,0.42,3.17,5.97,-4.77,-12.73,-147.86,-0.2
17,-9.86,-6.27,48.28,2.58,1.66,5.97,-4.77,-12.73,-147.86,-0.2
18,-9.86,-6.27,48.28,2.58,1.66,10.01,-7.19,-12.0,-146.66,-0.2
19,-15.4,-12.3,48.28,2.58,1.66,10.01,-7.19,-12.0,-146.66,-0.35
20,-15.4,-12.3,50.85,2.6,0.41,14.65,-7.19,-12.0,-146.66,-0.35
21,-15.4,-12.3,50.85,2.6,0.41,14.65,-12.75,-21.2,-144.26,-0.35
22,-86.16,-19.05,69.79,2.6,0.41,14.65,-12.75,-21.2,-144.26,-11.02
23,-86.16,-19.05,69.79,0.37,-17.61,-46.13,-12.75,-21.2,-144.26,-11.02
24,-86.16,-19.05,69.79,0.37,-17.61,-46.13,-25.91,-51.48,-145.13,-0.22

0,-11.06,-4.89,48.37,0.23,-0.2,2.57,-4.95,-15.99,-110.44,-0.06
1,-11.06,-4.89,48.37,0.23,-0.2,2.57,-5.77,-13.66,-110.11,-0.53
2,-13.37,-3.75,47.78,0.23,-0.2,2.57,-5.77,-13.66,-110.11,-0.53
3,-13.37,-3.75,47.78,0.21,-0.03,2.55,-4.82,-13.66,-110.11,-0.53
4,-13.37,-3.75,47.78,0.21,-0.03,2.55,-4.82,-14.79,-109.64,-0.16
5,-11.94,-4.09,47.42,-0.74,-0.03,2.55,-4.82,-14.79,-109.64,-0.16
6,-11.94,-4.09,47.42,-0.74,2.26,4.23,-4.93,-14.68,-109.64,-0.16
7,-13.71,-4.09,47.42,-0.74,2.26,4.23,-4.93,-14.68,-109.11,-0.02
8,-13.71,-4.28,48.69,-0.43,2.26,4.23,-4.93,-14.68,-109.11,-0.02
9,-13.71,-4.28,48.69,-0.43,0.99,2.37,-5.04,-14.3,-109.11,-0.02
10,-13.17,-4.28,48.69,-0.43,0.99,2.37,-5.04,-14.3,-108.53,-0.58
11,-13.17,-4.21,46.86,-1.32,1.6,2.37,-5.04,-14.3,-108.53,-0.58
12,-13.17,-4.21,46.86,-1.32,1.6,3.67,-5.15,-16.12,-108.53,-0.58
13,-12.7,-4.21,46.86,-1.32,1.6,3.67,-5.15,-16.12,-108.03,-0.13
14,-12.7,-4.71,46.51,-1.82,2.13,3.67,-5.15,-16.12,-108.03,-0.13
15,-12.7,-4.71,46.51,-1.82,2.13,3.66,-5.65,-14.45,-107.42,-0.13
16,-10.95,-4.42,47.35,-1.82,2.13,3.66,-5.65,-14.45,-107.42,-0.04
17,-10.95,-4.42,47.35,-2.12,3.57,4.76,-5.33,-14.45,-107.42,-0.04
18,-7.76,-4.42,47.35,-2.12,3.57,4.76,-5.33,-12.3,-106.9,0.29
19,-7.76,-5.73,49.2,-1.16,3.57,4.76,-5.33,-12.3,-106.9,0.29
20,-7.76,-5.73,49.2,-1.16,1.12,10.31,-6.55,-12.3,-106.9,0.29
21,-9.76,-5.73,49.2,-1.16,1.12,10.31,-6.55,-9.3,-105.64,-0.59
22,-9.76,-8.43,46.19,-1.28,2.57,10.31,-6.55,-9.3,-105.64,-0.59
23,-9.76,-8.43,46.19,-1.28,2.57,22.09,-11.73,-16.06,-105.64,-0.59
24,-99.99,-8.43,46.19,-1.28,2.57,22.09,-11.73,-16.06,-102.56,-11.1

0,-23.14,-1.61,52.2,-1.2,5.27,18.77,-0.18,-28.7,-65.16,1.41
1,-23.14,-1.61,52.2,-1.2,5.27,12.9,-0.08,-21.62,-63.01,1.41
2,-17.97,-0.96,52.2,-1.2,5.27,12.9,-0.08,-21.62,-63.01,-0.22
3,-17.97,-0.96,49.82,-1.23,7.95,13.2,-0.08,-21.62,-63.01,-0.22
4,-17.97,-0.96,49.82,-1.23,7.95,13.2,-0.23,-19.71,-60.67,-0.22
5,-17.85,-0.28,49.82,-1.23,7.95,13.2,-0.23,-19.71,-60.67,-0.05
6,-17.85,-0.28,48.22,0.03,1.83,9.75,-0.23,-19.71,-60.67,-0.05
7,-17.28,-0.28,48.22,0.03,1.83,9.75,-0.19,-18.35,-58.94,-0.21
8,-17.28,-0.09,46.75,0.26,1.83,9.75,-0.19,-18.35,-58.94,-0.21
9,-17.28,-0.09,46.75,0.26,6.09,9.96,-0.05,-18.35,-58.94,-0.21
10,-13.5,-0.09,46.75,0.26,6.09,9.96,-0.05,-19.75,-57.4,0.0
11,-13.5,-1.27,48.46,-0.27,6.09,9.96,-0.05,-19.75,-57.4,0.0
12,-13.5,-1.27,48.46,-0.27,-2.91,5.55,-1.37,-19.75,-57.4,0.0
13,-15.64,-1.27,48.46,-0.27,-2.91,5.55,-1.37,-16.01,-56.28,-0.34
14,-15.64,-0.26,45.25,0.78,-2.91,5.55,-1.37,-16.01,-56.28,-0.34
15,-15.64,-0.26,45.25,0.78,1.49,8.4,-0.63,-19.24,-56.28,-0.34
16,-13.5,-0.26,45.25,0.78,1.49,8.4,-0.63,-19.24,-55.06,0.07
17,-13.5,-1.51,48.98,0.41,-0.88,8.4,-0.63,-19.24,-55.06,0.07
18,-13.5,-1.51,48.98,0.41,-0.88,4.27,-1.69,-16.24,-54.13,0.07
19,-13.46,-1.57,48.98,0.41,-0.88,4.27,-1.69,-16.24,-54.13,0.03
20,-13.46,-1.57,47.59,1.14,0.23,7.28,-1.69,-16.24,-54.13,0.03
21,-13.46,-1.57,47.59,1.14,0.23,7.28,-2.26,-15.38,-53.06,0.36
22,-12.41,-4.72,43.6,1.14,0.23,7.28,-2.26,-15.38,-53.06,0.36
23,-12.41,-4.72,43.6,-0.64,5.04,17.3,-2.26,-15.38,-53.06,0.36
24,-12.41,-4.72,43.6,-0.64,5.04,17.3,-7.08,-16.83,-51.21,-0.13

0,-12.76,-1.0,46.45,-1.22,-0.74,1.36,-1.75,-14.6,-7.73,-0.07
1,-12.76,-1.0,46.45,-1.22,-0.74,1.36,-1.26,-13.98,-7.45,-0.07
2,-11.0,-1.08,46.45,-1.22,-0.74,1.36,-1.26,-13.98,-7.45,0.31
3,-11.0,-1.08,48.93,0.99,0.24,5.76,-1.26,-13.98,-7.45,0.31
4,-11.0,-1.08,48.93,0.99,0.24,5.76,-1.31,-13.64,-6.73,-0.07
5,-11.4,-2.01,47.02,0.99,0.24,5.76,-1.31,-13.64,-6.73,-0.07
6,-11.4,-2.01,47.02,0.49,0.95,8.65,-1.31,-13.64,-6.73,-0.07
7,-12.33,-2.01,47.02,0.49,0.95,8.65,-2.75,-13.53,-5.56,-0.17
8,-12.33,-3.28,49.1,1.43,0.95,8.65,-2.75,-13.53,-5.56,-0.17
9,-12.33,-3.28,49.1,1.43,-0.61,10.57,-3.72,-14.8,-5.56,-0.17
10,-12.16,-3.28,49.1,1.43,-0.61,10.57,-3.72,-14.8,-4.07,-0.89
11,-12.16,-4.35,45.78,3.23,-0.61,10.57,-3.72,-14.8,-4.07,-0.89
12,-12.16,-4.35,45.78,3.23,2.3,10.46,-5.29,-15.69,-2.28,-0.89
13,-10.51,-4.35,45.78,3.23,2.3,10.46,-5.29,-15.69,-2.28,0.09
14,-10.51,-6.05,49.18,7.58,2.53,12.88,-5.29,-15.69,-2.28,0.09
15,-10.51,-6.05,49.18,7.58,2.53,12.88,-6.52,-11.96,-0.5,-0.05
16,-8.47,-7.43,48.35,7.58,2.53,12.88,-6.52,-11.96,-0.5,-0.05
17,-8.47,-7.43,48.35,8.97,3.19,18.47,-8.79,-9.61,-0.5,-0.05
18,-7.97,-7.43,48.35,8.97,3.19,18.47,-8.79,-9.61,2.24,-0.07
19,-7.97,-10.74,45.84,4.56,3.19,18.47,-8.79,-9.61,2.24,-0.07
20,-7.97,-10.74,45.84,4.56,-0.58,24.52,-14.58,-12.29,2.24,-0.07
21,-26.72,-10.74,45.84,4.56,-0.58,24.52,-14.58,-12.29,5.48,-4.4
22,-26.72,-27.03,73.27,9.36,-0.58,24.52,-14.58,-12.29,5.48,-4.4
23,-26.72,-27.03,73.27,9.36,-14.21,21.48,-20.96,-34.41,5.48,-4.4
24,-99.99,-27.03,73.27,9.36,-14.21,21.48,-20.96,-34.41,9.04,-28.13

0,-21.1,-2.25,50.0,1.26,5.49,13.93,-2.77,-29.33,48.68,-0.24
1,-21.1,-2.25,50.0,1.26,-0.44,8.13,-2.34,-22.91,48.68,-0.24
2,-16.58,-2.25,50.0,1.26,-0.44,8.13,-2.34,-22.91,50.51,-0.1
3,-16.58,-2.5,47.6,1.49,-0.44,8.13,-2.34,-22.91,50.51,-0.1
4,-16.58,-2.5,47.6,1.49,1.27,2.27,-2.78,-18.5,50.51,-0.1
5,-16.09,-2.5,47.6,1.49,1.27,2.27,-2.78,-18.5,51.17,1.06
6,-16.09,-2.04,47.09,1.46,2.4,2.27,-2.78,-18.5,51.17,1.06
7,-16.09,-2.04,47.09,1.46,2.4,4.17,-2.58,-19.39,51.73,1.06
8,-16.16,-2.45,47.09,1.46,2.4,4.17,-2.58,-19.39,51.73,-0.25
9,-16.16,-2.45,48.99,1.19,1.25,0.52,-2.58,-19.39,51.73,-0.25
10,-16.16,-2.45,48.99,1.19,1.25,0.52,-3.19,-13.52,52.02,-0.25
11,-15.07,-2.08,48.99,1.19,1.25,0.52,-3.19,-13.52,52.02,0.96
12,-15.07,-2.08,48.09,0.33,1.36,7.09,-3.19,-13.52,52.02,0.96
13,-15.07,-2.08,48.09,0.33,1.36,7.09,-2.32,-18.01,52.84,0.27
14,-14.71,-1.65,48.0,0.33,1.36,7.09,-2.32,-18.01,52.84,0.27
15,-14.71,-1.65,48.0,-0.38,1.65,4.17,-2.09,-18.01,52.84,0.27
16,-13.53,-1.65,48.0,-0.38,1.65,4.17,-2.09,-16.88,53.72,-0.51
17,-13.53,-2.52,46.8,-0.11,1.65,4.17,-2.09,-16.88,53.72,-0.51
18,-13.53,-2.52,46.8,-0.11,2.44,5.05,-3.05,-15.0,53.72,-0.51
19,-13.53,-2.52,46.8,-0.11,2.44,5.05,-3.05,-15.0,54.32,-0.19
20,-10.16,-4.38,46.76,-0.41,2.44,5.05,-3.05,-15.0,54.32,-0.19
21,-10.16,-4.38,46.76,-0.41,2.47,12.45,-6.69,-8.59,54.32,-0.19
22,-15.55,-4.38,46.76,-0.41,2.47,12.45,-6.69,-8.59,55.75,-0.15
23,-15.55,-13.03,51.33,1.19,-9.26,12.45,-6.69,-8.59,55.75,-0.15
24,-15.55,-13.03,51.33,1.19,-9.26,28.48,-16.31,-30.82,59.6,-0.15

0,-28.39,-4.71,47.21,4.18,-0.51,30.56,-3.38,-35.23,72.09,2.02
1,-28.39,-4.71,47.21,4.18,-0.51,30.56,-5.57,-31.02,78.19,2.02
2,-27.56,-4.45,51.76,4.18,-0.51,30.56,-5.57,-31.02,78.19,0.87
3,-27.56,-4.45,51.76,9.78,-3.15,21.02,-5.57,-31.02,78.19,0.87
4,-27.56,-4.45,51.76,9.78,-3.15,21.02,-4.36,-24.96,82.0,-0.29
5,-21.27,-3.61,49.79,9.78,-3.15,21.02,-4.36,-24.96,82.0,-0.29
6,-21.27,-3.61,49.79,4.09,-1.72,11.43,-3.82,-24.96,82.0,-0.29
7,-21.27,-3.61,49.79,4.09,-1.72,11.43,-3.82,-23.61,85.07,-0.07
8,-13.92,-3.31,45.11,-2.04,-1.72,11.43,-3.82,-23.61,85.07,-0.07
9,-13.92,-3.31,45.11,-2.04,-0.81,4.81,-4.27,-13.64,85.07,-0.07
10,-11.89,-3.31,45.11,-2.04,-0.81,4.81,-4.27,-13.64,85.93,-0.22
11,-11.89,-1.97,46.81,0.14,-0.81,4.81,-4.27,-13.64,85.93,-0.22
12,-11.89,-1.97,46.81,0.14,-0.56,8.96,-2.55,-14.89,85.93,-0.22
13,-10.54,-1.97,46.81,0.14,-0.56,8.96,-2.55,-14.89,87.02,0.36
14,-10.54,-3.06,47.2,3.32,-0.43,8.96,-2.55,-14.89,87.02,0.36
15,-10.54,-3.06,47.2,3.32,-0.43,11.47,-4.43,-14.08,88.5,0.36
16,-15.81,-3.98,47.2,3.32,-0.43,11.47,-4.43,-14.08,88.5,-0.28
17,-15.81,-3.98,48.07,2.14,1.66,8.74,-4.43,-14.08,88.5,-0.28
18,-15.81,-3.98,48.07,2.14,1.66,8.74,-4.43,-19.11,90.14,0.25
19,-15.81,-5.93,48.03,2.14,1.66,8.74,-4.43,-19.11,90.14,0.25
20,-15.81,-5.93,48.03,1.39,4.43,5.52,-6.51,-19.11,90.14,0.25
21,-48.96,-5.93,48.03,1.39,4.43,5.52,-6.51,-18.66,91.04,-6.07
22,-48.96,-19.42,58.96,-3.72,4.43,5.52,-6.51,-18.66,91.04,-6.07
23,-48.96,-19.42,58.96,-3.72,-9.33,-10.96,-20.49,-18.66,91.04,-6.07
24,-98.68,-19.42,58.96,-3.72,-9.33,-10.96,-20.49,-58.39,91.1,-1.57

0,-13.62,-5.54,46.45,-2.22,0.78,2.95,-6.86,-14.51,122.06,-0.21
1,-13.62,-5.54,46.45,-2.22,0.7,1.29,-6.91,-15.3,122.06,-0.21
2,-12.52,-5.54,46.45,-2.22,0.7,1.29,-6.91,-15.3,122.34,-0.27
3,-12.52,-5.61,48.21,-0.64,-0.21,1.29,-6.91,-15.3,122.34,-0.27
4,-12.52,-5.61,48.21,-0.64,-0.21,2.94,-6.73,-14.45,122.69,-0.27
5,-12.26,-5.67,48.21,-0.64,-0.21,2.94,-6.73,-14.45,122.69,-0.02
6,-12.26,-5.67,47.35,-2.12,-0.14,2.42,-6.73,-14.45,122.69,-0.02
7,-12.26,-5.67,47.35,-2.12,-0.14,2.42,-6.84,-14.7,123.07,-0.23
8,-12.73,-6.2,48.23,-2.12,-0.14,2.42,-6.84,-14.7,123.07,-0.23
9,-12.73,-6.2,48.23,0.66,0.8,2.91,-6.84,-14.7,123.07,-0.23
10,-12.73,-6.2,48.23,0.66,0.8,2.91,-7.21,-13.97,123.55,-0.02
11,-12.56,-6.57,46.91,0.66,0.8,2.91,-7.21,-13.97,123.55,-0.02
12,-12.56,-6.57,46.91,-1.5,0.38,2.91,-7.21,-13.97,123.55,-0.02
13,-12.56,-6.57,46.91,-1.5,0.38,4.9,-7.66,-17.2,124.28,-0.02
14,-15.34,-6.57,46.91,-1.5,0.38,4.9,-7.66,-17.2,124.28,-0.3
15,-15.34,-7.67,48.14,0.19,1.49,4.9,-7.66,-17.2,124.28,-0.3
16,-15.34,-7.67,48.14,0.19,1.49,0.19,-8.76,-15.69,124.65,-0.3
17,-9.26,-7.46,48.14,0.19,1.49,0.19,-8.76,-15.69,124.65,0.87
18,-9.26,-7.46,47.34,0.99,0.69,2.58,-8.95,-15.69,124.65,0.87
19,-16.86,-7.46,47.34,0.99,0.69,2.58,-8.95,-10.63,124.83,-1.3
20,-16.86,-12.19,50.68,1.23,0.69,2.58,-8.95,-10.63,124.83,-1.3
21,-16.86,-12.19,50.68,1.23,-0.04,8.65,-13.6,-22.53,124.83,-1.3
22,-85.94,-12.19,50.68,1.23,-0.04,8.65,-13.6,-22.53,125.75,-0.13
23,-85.94,-22.63,49.96,-13.62,-0.28,8.65,-13.6,-22.53,125.75,-0.13
24,-85.94,-22.63,49.96,-13.62,-0.28,-38.36,-27.15,-59.37,124.55,-0.13

0,-16.03,-6.17,45.15,2.26,2.7,5.36,-8.21,-16.34,157.62,-0.42
1,-16.03,-6.17,45.15,2.26,1.39,6.57,-7.81,-19.39,157.62,-0.42
2,-14.59,-6.17,45.15,2.26,1.39,6.57,-7.81,-19.39,158.77,0.09
3,-14.59,-7.44,45.74,0.86,1.39,6.57,-7.81,-19.39,158.77,0.09
4,-14.59,-7.44,45.74,0.86,1.8,3.6,-9.28,-15.16,158.77,0.09
5,-14.38,-7.46,45.74,0.86,1.8,3.6,-9.28,-15.16,159.45,-0.81
6,-14.38,-7.46,47.26,0.79,2.48,3.6,-9.28,-15.16,159.45,-0.81
7,-14.38,-7.46,47.26,0.79,2.48,6.65,-8.96,-17.99,160.35,-0.81
8,-13.6,-9.13,47.26,0.79,2.48,6.65,-8.96,-17.99,160.35,-0.16
9,-13.6,-9.13,47.68,0.14,1.27,6.17,-8.96,-17.99,160.35,-0.16
10,-13.6,-9.13,47.68,0.14,1.27,6.17,-10.59,-16.34,161.31,-0.16
11,-14.78,-8.3,47.68,0.14,1.27,6.17,-10.59,-16.34,161.31,-0.06
12,-14.78,-8.3,48.37,0.48,0.93,7.39,-10.59,-16.34,161.31,-0.06
13,-14.78,-8.3,48.37,0.48,0.93,7.39,-9.83,-18.63,162.38,0.0
14,-13.22,-9.45,48.37,0.48,0.93,7.39,-9.83,-18.63,162.38,0.0
15,-13.22,-9.45,46.58,-0.85,0.51,3.58,-9.83,-18.63,162.38,0.0
16,-13.22,-9.45,46.58,-0.85,0.51,3.58,-11.39,-15.95,163.14,-0.51
17,-14.34,-8.55,47.37,-0.85,0.51,3.58,-11.39,-15.95,163.14,-0.51
18,-14.34,-8.55,47.37,1.03,2.02,4.7,-10.48,-15.95,163.14,-0.51
19,-14.34,-8.55,47.37,1.03,2.02,4.7,-10.48,-15.87,164.03,0.8
20,-12.12,-9.59,45.54,1.03,2.02,4.7,-10.48,-15.87,164.03,0.8
21,-12.12,-9.59,45.54,-0.74,4.14,7.43,-11.91,-15.87,164.03,0.8
22,-19.46,-9.59,45.54,-0.74,4.14,7.43,-11.91,-14.58,164.94,-0.17
23,-19.46,-24.52,64.72,-0.74,4.14,7.43,-11.91,-14.58,164.94,-0.17
24,-19.46,-24.52,64.72,1.31,-5.44,10.67,-19.77,-30.58,164.94,-0.17

0,-12.84,0.6,49.75,-4.68,1.81,8.44,-3.41,-14.24,-159.51,-0.21
1,-12.84,0.6,49.75,-4.68,1.81,16.08,0.12,-17.42,-157.85,-0.21
2,-9.45,-0.39,49.75,-4.68,1.81,16.08,0.12,-17.42,-157.85,2.54
3,-9.45,-0.39,45.02,-6.84,7.14,12.14,0.12,-17.42,-157.85,2.54
4,-9.45,-0.39,45.02,-6.84,7.14,12.14,-1.88,-12.58,-156.41,0.79
5,-7.92,-3.26,48.35,-6.84,7.14,12.14,-1.88,-12.58,-156.41,0.79
6,-7.92,-3.26,48.35,-0.02,3.16,12.55,-3.57,-12.58,-156.41,0.79
7,-7.92,-3.26,48.35,-0.02,3.16,12.55,-3.57,-7.98,-154.32,-0.23
8,-6.97,-3.81,49.3,2.42,3.16,12.55,-3.57,-7.98,-154.32,-0.23
9,-6.97,-3.81,49.3,2.42,-1.81,21.3,-4.63,-7.98,-154.32,-0.23
10,-12.45,-3.81,49.3,2.42,-1.81,21.3,-4.63,-9.46,-151.71,-1.51
11,-12.45,-4.64,46.66,-0.92,-1.81,21.3,-4.63,-9.46,-151.71,-1.51
12,-12.45,-4.64,46.66,-0.92,-1.63,18.84,-5.63,-9.46,-151.71,-1.51
13,-11.01,-4.64,46.66,-0.92,-1.63,18.84,-5.63,-15.5,-148.11,-0.93
14,-11.01,-5.36,48.33,4.44,-1.63,18.84,-5.63,-15.5,-148.11,-0.93
15,-11.01,-5.36,48.33,4.44,2.37,10.75,-7.64,-15.5,-148.11,-0.93
16,-11.01,-5.36,48.33,4.44,2.37,10.75,-7.64,-11.33,-146.07,-0.27
17,-12.12,-6.93,47.65,2.53,2.37,10.75,-7.64,-11.33,-146.07,-0.27
18,-12.12,-6.93,47.65,2.53,1.63,10.96,-7.46,-14.12,-146.07,-0.27
19,-9.26,-6.64,47.65,2.53,1.63,10.96,-7.46,-14.12,-144.37,-0.14
20,-9.26,-6.64,44.4,0.62,1.58,5.34,-7.46,-14.12,-144.37,-0.14
21,-9.26,-6.64,44.4,0.62,1.58,5.34,-9.49,-10.8,-143.1,-1.3
22,-11.74,-16.61,44.4,0.62,1.58,5.34,-9.49,-10.8,-143.1,-1.3
23,-11.74,-16.61,61.75,6.35,-1.87,10.57,-9.49,-10.8,-143.1,-1.3
24,-11.74,-16.61,61.75,6.35,-1.87,10.57,-15.12,-22.74,-141.84,-34.11

0,-10.89,-4.88,46.7,-1.43,1.13,1.62,-6.82,-15.09,-106.81,-0.1
1,-10.89,-4.88,46.7,-1.43,1.13,4.65,-5.98,-14.82,-106.26,-0.1
2,-10.77,-5.28,46.7,-1.43,1.13,4.65,-5.98,-14.82,-106.26,-0.28
3,-10.77,-5.28,46.43,-1.39,1.13,4.26,-6.65,-14.82,-106.26,-0.28
4,-10.77,-5.28,46.43,-1.39,1.13,4.26,-6.65,-13.33,-105.64,-0.14
5,-13.44,-5.56,46.43,-1.39,1.13,4.26,-6.65,-13.33,-105.64,-0.14
6,-13.44,-5.56,49.11,1.39,1.33,6.98,-6.65,-13.33,-105.64,-0.14
7,-13.44,-5.56,49.11,1.39,1.33,6.98,-6.44,-14.72,-104.73,-0.25
8,-10.56,-6.59,48.44,1.39,1.33,6.98,-6.44,-14.72,-104.73,-0.25
9,-10.56,-6.59,48.44,-1.72,0.98,6.21,-6.44,-14.72,-104.73,-0.25
10,-10.56,-6.59,48.44,-1.72,0.98,6.21,-7.39,-12.77,-103.8,-0.12
11,-15.34,-5.27,48.52,1.68,0.98,6.21,-7.39,-12.77,-103.8,-0.12
12,-15.34,-5.27,48.52,1.68,1.7,6.49,-6.69,-16.46,-103.8,-0.12
13,-12.78,-5.27,48.52,1.68,1.7,6.49,-6.69,-16.46,-102.61,-0.26
14,-12.78,-6.82,46.88,-0.66,-0.41,6.49,-6.69,-16.46,-102.61,-0.26
15,-12.78,-6.82,46.88,-0.66,-0.41,4.75,-7.98,-16.0,-102.61,-0.26
16,-12.74,-7.14,46.88,-0.66,-0.41,4.75,-7.98,-16.0,-101.8,-0.55
17,-12.74,-7.14,47.61,0.39,0.95,2.29,-7.98,-16.0,-101.8,-0.55
18,-12.74,-7.14,47.61,0.39,0.95,2.29,-8.36,-13.14,-101.25,-0.55
19,-12.04,-9.37,47.61,0.39,0.95,2.29,-8.36,-13.14,-101.25,-0.52
20,-12.04,-9.37,46.42,0.46,2.2,6.35,-8.36,-13.14,-101.25,-0.52
21,-12.04,-9.37,46.42,0.46,2.2,6.35,-12.68,-18.13,-100.58,-0.23
22,-99.99,-33.42,46.42,0.46,2.2,6.35,-12.68,-18.13,-100.58,-0.23
23,-99.99,-33.42,69.0,-3.35,-9.44,6.35,-12.68,-18.13,-100.58,-0.23
24,-99.99,-33.42,69.0,-3.35,-9.44,-22.16,-30.76,-55.26,-100.57,-0.23

0,-15.57,-3.86,46.99,-0.67,1.93,9.15,-5.44,-12.76,-65.61,-0.18
1,-15.57,-3.86,46.99,-0.67,1.93,9.15,-4.64,-16.84,-64.41,1.53
2,-11.2,-4.6,48.06,0.35,1.93,9.15,-4.64,-16.84,-64.41,1.53
3,-11.2,-4.6,48.06,0.35,0.63,8.77,-5.64,-16.84,-64.41,1.53
4,-14.8,-4.6,48.06,0.35,0.63,8.77,-5.64,-15.19,-63.11,-1.04
5,-14.8,-4.67,48.28,1.32,0.63,8.77,-5.64,-15.19,-63.11,-1.04
6,-14.8,-4.67,48.28,1.32,0.3,2.33,-6.34,-14.22,-63.11,-1.04
7,-13.17,-4.67,48.28,1.32,0.3,2.33,-6.34,-14.22,-62.09,-0.24
8,-13.17,-5.36,47.22,-0.3,0.69,2.33,-6.34,-14.22,-62.09,-0.24
9,-13.17,-5.36,47.22,-0.3,0.69,4.81,-6.58,-16.61,-61.53,-0.24
10,-12.55,-6.05,47.22,-0.3,0.69,4.81,-6.58,-16.61,-61.53,0.13
11,-12.55,-6.05,49.0,-0.05,1.05,1.6,-6.58,-16.61,-61.53,0.13
12,-12.55,-6.05,49.0,-0.05,1.05,1.6,-6.88,-13.91,-61.03,0.13
13,-12.52,-5.59,49.0,-0.05,1.05,1.6,-6.88,-13.91,-61.03,-0.17
14,-12.52,-5.59,46.22,-1.44,1.5,3.38,-6.88,-13.91,-61.03,-0.17
15,-12.52,-5.59,46.22,-1.44,1.5,3.38,-6.68,-15.4,-60.62,-0.1
16,-11.44,-6.07,45.35,-1.44,1.5,3.38,-6.68,-15.4,-60.62,-0.1
17,-11.44,-6.07,45.35,-0.78,0.32,4.84,-7.6,-15.4,-60.62,-0.1
18,-11.44,-6.07,45.35,-0.78,0.32,4.84,-7.6,-14.13,-59.95,-0.32
19,-10.56,-8.24,47.59,-0.78,0.32,4.84,-7.6,-14.13,-59.95,-0.32
20,-10.56,-8.24,47.59,2.33,7.25,11.76,-9.98,-14.13,-59.95,-0.32
21,-10.56,-8.24,47.59,2.33,7.25,11.76,-9.98,-12.54,-58.44,-6.01
22,-31.22,-18.56,74.92,-3.37,7.25,11.76,-9.98,-12.54,-58.44,-6.01
23,-31.22,-18.56,74.92,-3.37,-4.53,11.54,-13.99,-32.6,-58.44,-6.01
24,-99.99,-18.56,74.92,-3.37,-4.53,11.54,-13.99,-32.6,-56.52,-23.06

0,-14.72,-4.82,46.82,-0.44,2.47,8.34,-6.07,-20.62,-15.72,-0.16
1,-14.72,-4.82,46.82,-0.44,2.47,0.44,-6.13,-14.85,-14.99,-0.16
2,-12.15,-5.01,46.82,-0.44,2.47,0.44,-6.13,-14.85,-14.99,-0.3
3,-12.15,-5.01,48.1,0.01,1.27,2.29,-6.13,-14.85,-14.99,-0.3
4,-12.15,-5.01,48.1,0.01,1.27,2.29,-5.97,-14.33,-14.78,-0.3
5,-12.05,-4.86,48.1,0.01,1.27,2.29,-5.97,-14.33,-14.78,0.21
6,-12.05,-4.86,48.11,0.39,0.72,4.12,-5.97,-14.33,-14.78,0.21
7,-12.05,-4.86,48.11,0.39,0.72,4.12,-5.77,-14.33,-14.18,-0.59
8,-12.63,-4.2,48.11,0.39,0.72,4.12,-5.77,-14.33,-14.18,-0.59
9,-12.63,-4.2,48.96,-0.17,0.84,2.72,-5.77,-14.33,-14.18,-0.59
10,-12.63,-4.2,48.96,-0.17,0.84,2.72,-5.36,-13.56,-13.56,0.33
11,-12.39,-4.61,47.53,-0.75,0.84,2.72,-5.36,-13.56,-13.56,0.33
12,-12.39,-4.61,47.53,-0.75,1.18,5.29,-5.47,-13.56,-13.56,0.33
13,-12.82,-4.61,47.53,-0.75,1.18,5.29,-5.47,-14.96,-12.92,-0.0
14,-12.82,-4.44,46.85,-0.96,1.18,5.29,-5.47,-14.96,-12.92,-0.0
15,-12.82,-4.44,46.85,-0.96,0.71,2.98,-5.7,-14.65,-12.92,-0.0
16,-11.58,-4.44,46.85,-0.96,0.71,2.98,-5.7,-14.65,-12.17,-0.52
17,-11.58,-5.45,47.85,-0.07,0.91,2.98,-5.7,-14.65,-12.17,-0.52
18,-11.58,-5.45,47.85,-0.07,0.91,4.81,-6.42,-13.5,-12.17,-0.52
19,-10.02,-5.45,47.85,-0.07,0.91,4.81,-6.42,-13.5,-11.59,-0.31
20,-10.02,-7.32,45.86,-0.77,5.02,4.81,-6.42,-13.5,-11.59,-0.31
21,-10.02,-7.32,45.86,-0.77,5.02,7.63,-10.16,-11.28,-10.73,-0.31
22,-77.49,-29.49,45.86,-0.77,5.02,7.63,-10.16,-11.28,-10.73,-0.07
23,-77.49,-29.49,62.84,-1.6,-26.16,-31.76,-10.16,-11.28,-10.73,-0.07
24,-77.49,-29.49,62.84,-1.6,-26.16,-31.76,-35.99,-61.67,-10.64,-0.02

0,-11.72,-4.41,48.48,1.02,0.33,4.25,-4.85,-15.3,33.15,-0.21
1,-13.16,-4.41,48.48,1.02,0.33,4.25,-4.85,-13.99,33.67,-0.31
2,-13.16,-3.49,46.56,-0.07,0.33,4.25,-4.85,-13.99,33.67,-0.31
3,-13.16,-3.49,46.56,-0.07,-0.87,4.86,-4.31,-16.35,33.67,-0.31
4,-12.58,-3.49,46.56,-0.07,-0.87,4.86,-4.31,-16.35,34.39,0.58
5,-12.58,-4.37,45.77,0.12,-0.87,4.86,-4.31,-16.35,34.39,0.58
6,-12.58,-4.37,45.77,0.12,1.22,6.27,-5.39,-15.65,35.31,0.58
7,-11.94,-4.37,45.77,0.12,1.22,6.27,-5.39,-15.65,35.31,-0.12
8,-11.94,-4.96,48.57,0.78,0.37,6.27,-5.39,-15.65,35.31,-0.12
9,-11.94,-4.96,48.57,0.78,0.37,7.95,-5.55,-14.25,36.41,-0.12
10,-15.26,-5.28,48.57,0.78,0.37,7.95,-5.55,-14.25,36.41,-0.84
11,-15.26,-5.28,47.75,0.39,0.27,8.13,-5.55,-14.25,36.41,-0.84
12,-15.26,-5.28,47.75,0.39,0.27,8.13,-6.21,-17.35,37.93,0.05
13,-14.26,-6.24,47.75,0.39,0.27,8.13,-6.21,-17.35,37.93,0.05
14,-14.26,-6.24,48.63,0.55,-0.25,5.07,-6.21,-17.35,37.93,0.05
15,-14.26,-6.24,48.63,0.55,-0.25,5.07,-7.0,-13.7,38.95,0.05
16,-12.41,-5.51,48.63,0.55,-0.25,5.07,-7.0,-13.7,38.95,-0.4
17,-12.41,-5.51,46.14,0.34,0.24,8.61,-7.0,-13.7,38.95,-0.4
18,-12.41,-5.51,46.14,0.34,0.24,8.61,-6.35,-15.08,40.04,-0.05
19,-10.33,-6.92,46.67,0.34,0.24,8.61,-6.35,-15.08,40.04,-0.05
20,-10.33,-6.92,46.67,2.57,1.5,11.59,-10.09,-15.08,40.04,-0.05
21,-28.62,-6.92,46.67,2.57,1.5,11.59,-10.09,-11.65,41.74,-0.01
22,-28.62,-19.14,65.55,9.03,1.5,11.59,-10.09,-11.65,41.74,-0.01
23,-28.62,-19.14,65.55,9.03,-13.29,21.63,-16.92,-42.83,41.74,-0.01
24,-99.99,-19.14,65.55,9.03,-13.29,21.63,-16.92,-42.83,44.43,-19.4

0,-12.62,-8.13,47.04,0.99,0.35,4.72,-9.72,-15.37,85.76,1.37
1,-17.16,-8.13,47.04,0.99,0.35,4.72,-9.72,-15.37,86.46,-1.12
2,-17.16,-7.47,49.07,1.01,0.35,4.72,-9.72,-15.37,86.46,-1.12
3,-17.16,-7.47,49.07,1.01,-0.41,3.88,-9.07,-20.22,87.46,-1.12
4,-13.91,-7.83,49.07,1.01,-0.41,3.88,-9.07,-20.22,87.46,-0.07
5,-13.91,-7.83,46.13,-1.47,2.37,3.88,-9.07,-20.22,87.46,-0.07
6,-13.91,-7.83,46.13,-1.47,2.37,1.19,-9.57,-16.16,87.68,-0.07
7,-12.16,-8.01,46.13,-1.47,2.37,1.19,-9.57,-16.16,87.68,-0.16
8,-12.16,-8.01,46.88,-0.27,0.03,3.61,-9.79,-16.16,87.68,-0.16
9,-12.16,-8.01,46.88,-0.27,0.03,3.61,-9.79,-16.53,88.04,-2.24
10,-16.08,-8.11,46.19,-0.27,0.03,3.61,-9.79,-16.53,88.04,-2.24
11,-16.08,-8.11,46.19,-0.86,1.45,-1.33,-9.75,-16.53,88.04,-2.24
12,-10.73,-8.11,46.19,-0.86,1.45,-1.33,-9.75,-16.79,88.22,1.02
13,-10.73,-7.43,46.35,-0.86,1.45,-1.33,-9.75,-16.79,88.22,1.02
14,-10.73,-7.43,46.35,1.13,1.51,2.89,-9.08,-16.79,88.22,1.02
15,-12.48,-7.43,46.35,1.13,1.51,2.89,-9.08,-13.02,88.31,-0.02
16,-12.48,-8.51,46.24,-0.04,1.51,2.89,-9.08,-13.02,88.31,-0.02
17,-12.48,-8.51,46.24,-0.04,1.34,6.95,-10.63,-15.23,88.31,-0.02
18,-13.46,-8.51,46.24,-0.04,1.34,6.95,-10.63,-15.23,89.22,-0.12
19,-13.46,-11.28,47.1,1.18,2.19,6.95,-10.63,-15.23,89.22,-0.12
20,-13.46,-11.28,47.1,1.18,2.19,9.62,-13.58,-17.88,90.71,-0.12
21,-38.86,-23.32,47.1,1.18,2.19,9.62,-13.58,-17.88,90.71,-4.97
22,-38.86,-23.32,68.48,2.73,-8.79,-7.26,-13.58,-17.88,90.71,-4.97
23,-38.86,-23.32,68.48,2.73,-8.79,-7.26,-22.12,-48.8,91.59,-0.04
24,-99.99,-53.54,68.48,2.73,-8.79,-7.26,-22.12,-48.8,91.59,-0.04

0,-12.34,-3.47,48.19,-0.16,0.41,2.11,-2.35,-18.8,124.01,0.56
1,-12.34,-3.47,48.19,-0.16,0.41,2.11,-3.77,-13.14,124.36,-0.13
2,-14.77,-2.73,50.05,4.12,0.41,2.11,-3.77,-13.14,124.36,-0.13
3,-14.77,-2.73,50.05,4.12,-0.15,4.35,-3.04,-15.88,124.36,-0.13
4,-14.77,-2.73,50.05,4.12,-0.15,4.35,-3.04,-15.88,125.09,-0.16
5,-11.83,-3.61,47.72,-0.18,-0.15,4.35,-3.04,-15.88,125.09,-0.16
6,-11.83,-3.61,47.72,-0.18,0.78,3.14,-4.11,-13.7,125.09,-0.16
7,-13.51,-3.61,47.72,-0.18,0.78,3.14,-4.11,-13.7,125.55,-1.17
8,-13.51,-3.56,49.31,1.26,1.27,3.14,-4.11,-13.7,125.55,-1.17
9,-13.51,-3.56,49.31,1.26,1.27,5.05,-4.04,-14.67,126.42,-1.17
10,-11.54,-3.56,49.31,1.26,1.27,5.05,-4.04,-14.67,126.42,-0.15
11,-11.54,-4.12,47.31,-0.21,1.18,5.05,-4.04,-14.67,126.42,-0.15
12,-11.54,-4.12,47.31,-0.21,1.18,6.53,-4.73,-14.66,127.42,-0.15
13,-12.47,-4.4,46.7,-0.21,1.18,6.53,-4.73,-14.66,127.42,-0.59
14,-12.47,-4.4,46.7,-0.25,0.24,6.72,-4.73,-14.66,127.42,-0.59
15,-12.47,-4.4,46.7,-0.25,0.24,6.72,-5.41,-15.04,128.45,-0.18
16,-12.99,-5.29,47.44,-0.25,0.24,6.72,-5.41,-15.04,128.45,-0.18
17,-12.99,-5.29,47.44,0.84,-0.28,7.99,-6.12,-15.04,128.45,-0.18
18,-12.99,-5.29,47.44,0.84,-0.28,7.99,-6.12,-15.24,129.76,-0.22
19,-11.42,-6.45,46.72,1.69,-0.28,7.99,-6.12,-15.24,129.76,-0.22
20,-11.42,-6.45,46.72,1.69,1.97,10.12,-7.91,-13.13,129.76,-0.22
21,-24.14,-6.45,46.72,1.69,1.97,10.12,-7.91,-13.13,131.05,-0.62
22,-24.14,-14.59,53.3,3.31,0.32,10.12,-7.91,-13.13,131.05,-0.62
23,-24.14,-14.59,53.3,3.31,0.32,16.25,-14.12,-29.44,133.14,-0.62
24,-99.99,-14.59,53.3,3.31,0.32,16.25,-14.12,-29.44,133.14,-0.03

0,-12.1,-3.85,49.16,0.81,1.39,1.57,-4.56,-13.68,162.86,-0.26
1,-12.1,-3.85,49.16,0.81,1.39,3.56,-4.21,-15.28,163.36,-0.26
2,-11.26,-3.54,49.16,0.81,1.39,3.56,-4.21,-15.28,163.36,-0.32
3,-11.26,-3.54,47.41,-1.77,4.68,1.91,-4.21,-15.28,163.36,-0.32
4,-11.26,-3.54,47.41,-1.77,4.68,1.91,-4.19,-13.34,163.71,-0.32
5,-11.57,-4.7,47.41,-1.77,4.68,1.91,-4.19,-13.34,163.71,0.13
6,-11.57,-4.7,49.48,1.06,2.61,3.2,-4.19,-13.34,163.71,0.13
7,-11.57,-4.7,49.48,1.06,2.61,3.2,-4.77,-12.3,164.22,-0.32
8,-10.58,-3.79,47.96,1.06,2.61,3.2,-4.77,-12.3,164.22,-0.32
9,-10.58,-3.79,47.96,-0.57,1.47,3.28,-4.53,-12.3,164.22,-0.32
10,-10.58,-3.79,47.96,-0.57,1.47,3.28,-4.53,-11.76,164.74,-0.08
11,-9.31,-4.64,48.24,-0.57,1.47,3.28,-4.53,-11.76,164.74,-0.08
12,-9.31,-4.64,48.24,-0.52,2.41,6.18,-5.39,-11.76,164.74,-0.08
13,-9.31,-4.64,48.24,-0.52,2.41,6.18,-5.39,-11.41,165.6,-0.5
14,-11.33,-5.1,48.17,-0.52,2.41,6.18,-5.39,-11.41,165.6,-0.5
15,-11.33,-5.1,48.17,-0.41,-0.65,7.06,-5.39,-11.41,165.6,-0.5
16,-11.33,-5.1,48.17,-0.41,-0.65,7.06,-5.61,-12.41,166.81,-0.13
17,-9.72,-5.53,47.27,-0.41,-0.65,7.06,-5.61,-12.41,166.81,-0.13
18,-9.72,-5.53,47.27,0.31,1.61,8.81,-5.61,-12.41,166.81,-0.13
19,-9.72,-5.53,47.27,0.31,1.61,8.81,-6.74,-10.74,167.99,-0.3
20,-8.65,-6.5,47.05,0.82,1.61,8.81,-6.74,-10.74,167.99,-0.3
21,-8.65,-6.5,47.05,0.82,-0.82,15.93,-8.68,-9.48,167.99,-0.3
22,-11.83,-6.5,47.05,0.82,-0.82,15.93,-8.68,-9.48,170.12,-0.24
23,-11.83,-14.17,55.29,6.21,4.85,15.93,-8.68,-9.48,170.12,-0.24
24,-11.83,-14.17,55.29,6.21,4.85,28.22,-13.59,-19.23,173.69,-0.24

0,-14.61,-2.68,47.84,2.31,0.92,10.56,-1.82,-19.26,-138.8,-0.16
1,-14.61,-2.68,47.84,2.31,0.92,11.43,-2.99,-17.37,-136.98,-0.16
2,-15.55,-2.5,47.84,2.31,0.92,11.43,-2.99,-17.37,-136.98,-0.16
3,-15.55,-2.5,45.99,1.2,4.09,11.43,-2.99,-17.37,-136.98,-0.16
4,-15.55,-2.5,45.99,1.2,4.09,10.62,-3.18,-15.38,-135.04,-0.16
5,-12.32,-3.49,45.99,1.2,4.09,10.62,-3.18,-15.38,-135.04,-0.01
6,-12.32,-3.49,47.12,3.66,4.08,13.03,-4.04,-15.38,-135.04,-0.01
7,-12.32,-3.49,47.12,3.66,4.08,13.03,-4.04,-13.76,-133.22,-0.3
8,-10.96,-5.14,42.0,3.96,4.08,13.03,-4.04,-13.76,-133.22,-0.3
9,-10.96,-5.14,42.0,3.96,4.73,16.71,-6.59,-15.63,-133.22,-0.3
10,-12.68,-5.14,42.0,3.96,4.73,16.71,-6.59,-15.63,-130.58,-1.33
11,-12.68,-8.25,49.62,11.11,-1.13,16.71,-6.59,-15.63,-130.58,-1.33
12,-12.68,-8.25,49.62,11.11,-1.13,17.67,-9.87,-12.99,-130.58,-1.33
13,-15.93,-8.25,49.62,11.11,-1.13,17.67,-9.87,-12.99,-127.98,-0.18
14,-15.93,-11.05,48.01,8.25,0.38,17.67,-9.87,-12.99,-127.98,-0.18
15,-15.93,-11.05,48.01,8.25,0.38,18.7,-12.39,-18.89,-124.7,-0.18
16,-17.67,-11.44,48.01,8.25,0.38,18.7,-12.39,-18.89,-124.7,-1.01
17,-17.67,-11.44,46.59,5.63,0.16,7.33,-12.39,-18.89,-124.7,-1.01
18,-17.67,-11.44,46.59,5.63,0.16,7.33,-14.19,-17.9,-122.62,-0.02
19,-14.07,-12.81,46.59,5.63,0.16,7.33,-14.19,-17.9,-122.62,-0.02
20,-14.07,-12.81,46.16,0.58,10.44,5.53,-14.19,-17.9,-122.62,-0.02
21,-14.07,-12.81,46.16,0.58,10.44,5.53,-15.36,-13.62,-121.58,-0.25
22,-13.78,-24.95,46.16,0.58,10.44,5.53,-15.36,-13.62,-121.58,-0.25
23,-13.78,-24.95,51.3,1.76,7.32,12.02,-15.36,-13.62,-121.58,-0.25
24,-13.78,-24.95,51.3,1.76,7.32,12.02,-25.49,-20.62,-120.32,-0.05

0,-14.92,-2.89,48.44,-1.22,0.64,8.0,-3.62,-17.25,-83.23,-0.15
1,-14.92,-2.89,48.44,-1.22,0.64,8.0,-3.28,-15.9,-81.61,0.45
2,-13.58,-2.53,48.11,-1.22,0.64,8.0,-3.28,-15.9,-81.61,0.45
3,-13.58,-2.53,48.11,0.98,1.37,6.95,-3.16,-15.9,-81.61,0.45
4,-13.58,-2.53,48.11,0.98,1.37,6.95,-3.16,-16.32,-80.39,0.56
5,-9.97,-2.68,48.48,1.05,1.37,6.95,-3.16,-16.32,-80.39,0.56
6,-9.97,-2.68,48.48,1.05,2.57,3.54,-3.8,-10.69,-80.39,0.56
7,-11.37,-2.68,48.48,1.05,2.57,3.54,-3.8,-10.69,-79.69,-0.06
8,-11.37,-3.02,48.85,1.16,0.4,3.54,-3.8,-10.69,-79.69,-0.06
9,-11.37,-3.02,48.85,1.16,0.4,5.69,-3.53,-13.02,-79.69,-0.06
10,-9.07,-3.02,48.85,1.16,0.4,5.69,-3.53,-13.02,-78.92,0.11
11,-9.07,-3.13,47.21,0.67,0.4,5.69,-3.53,-13.02,-78.92,0.11
12,-9.07,-3.13,47.21,0.67,1.45,4.91,-3.84,-12.03,-78.92,0.11
13,-10.17,-3.36,47.21,0.67,1.45,4.91,-3.84,-12.03,-78.12,-0.21
14,-10.17,-3.36,49.47,1.74,1.38,4.45,-3.84,-12.03,-78.12,-0.21
15,-10.17,-3.36,49.47,1.74,1.38,4.45,-3.8,-11.2,-77.37,-0.12
16,-8.95,-3.67,46.93,1.74,1.38,4.45,-3.8,-11.2,-77.37,-0.12
17,-8.95,-3.67,46.93,-0.18,-0.02,6.46,-4.42,-11.2,-77.37,-0.12
18,-8.95,-3.67,46.93,-0.18,-0.02,6.46,-4.42,-10.73,-76.47,-0.21
19,-7.53,-5.72,46.7,2.38,-0.02,6.46,-4.42,-10.73,-76.47,-0.21
20,-7.53,-5.72,46.7,2.38,3.49,11.19,-4.42,-10.73,-76.47,-0.21
21,-7.53,-5.72,46.7,2.38,3.49,11.19,-8.57,-11.26,-74.98,-0.21
22,-64.07,-27.15,69.36,2.39,3.49,11.19,-8.57,-11.26,-74.98,-0.24
23,-64.07,-27.15,69.36,2.39,-15.61,4.25,-19.47,-11.26,-74.98,-0.24
24,-99.99,-27.15,69.36,2.39,-15.61,4.25,-19.47,-50.75,-73.45,-0.04

0,-10.63,-6.18,48.09,-0.31,1.84,1.98,-7.19,-15.49,-28.93,0.46
1,-9.59,-6.18,48.09,-0.31,1.84,1.98,-7.19,-11.1,-28.67,-0.27
2,-9.59,-5.84,47.49,0.21,1.84,1.98,-7.19,-11.1,-28.67,-0.27
3,-9.59,-5.84,47.49,0.21,-0.3,4.55,-7.19,-13.35,-28.67,-0.27
4,-10.13,-5.84,47.49,0.21,-0.3,4.55,-7.19,-13.35,-28.09,-0.01
5,-10.13,-6.51,49.83,0.84,-0.3,4.55,-7.19,-13.35,-28.09,-0.01
6,-10.13,-6.51,49.83,0.84,0.7,2.77,-7.29,-10.73,-28.09,-0.01
7,-10.53,-6.51,49.83,0.84,0.7,2.77,-7.29,-10.73,-27.55,0.03
8,-10.53,-6.42,47.45,0.17,2.42,2.77,-7.29,-10.73,-27.55,0.03
9,-10.53,-6.42,47.45,0.17,2.42,6.13,-7.78,-12.34,-26.7,0.03
10,-11.09,-7.38,47.45,0.17,2.42,6.13,-7.78,-12.34,-26.7,-0.42
11,-11.09,-7.38,49.21,1.34,0.31,6.13,-7.78,-12.34,-26.7,-0.42
12,-11.09,-7.38,49.21,1.34,0.31,4.68,-8.69,-12.51,-25.78,-0.42
13,-11.32,-7.42,49.21,1.34,0.31,4.68,-8.69,-12.51,-25.78,-0.63
14,-11.32,-7.42,46.6,0.3,0.94,3.9,-8.69,-12.51,-25.78,-0.63
15,-11.32,-7.42,46.6,0.3,0.94,3.9,-9.06,-12.94,-25.08,-0.33
16,-9.2,-8.55,46.8,0.3,0.94,3.9,-9.06,-12.94,-25.08,-0.33
17,-9.2,-8.55,46.8,0.62,1.41,4.47,-10.1,-12.94,-25.08,-0.33
18,-9.2,-8.55,46.8,0.62,1.41,4.47,-10.1,-11.86,-24.41,-0.24
19,-9.94,-12.61,50.09,1.78,1.41,4.47,-10.1,-11.86,-24.41,-0.24
20,-9.94,-12.61,50.09,1.78,1.68,5.56,-13.48,-12.98,-24.41,-0.24
21,-63.02,-12.61,50.09,1.78,1.68,5.56,-13.48,-12.98,-23.64,-5.95
22,-63.02,-30.7,60.19,-4.76,-1.64,5.56,-13.48,-12.98,-23.64,-5.95
23,-63.02,-30.7,60.19,-4.76,-1.64,-32.16,-28.88,-53.51,-23.64,-5.95
24,-99.99,-30.7,60.19,-4.76,-1.64,-32.16,-28.88,-53.51,-23.98,-0.05

0,-9.22,-0.75,45.9,-0.03,-0.56,5.0,0.22,-17.55,9.56,-0.23
1,-9.22,-0.75,45.9,-0.03,-0.56,5.0,-0.72,-12.1,10.65,-0.23
2,-12.48,-0.1,45.9,-0.03,-0.56,5.0,-0.72,-12.1,10.65,-0.28
3,-12.48,-0.1,47.21,5.04,1.79,4.31,-0.72,-12.1,10.65,-0.28
4,-12.48,-0.1,47.21,5.04,1.79,4.31,-0.78,-12.62,11.63,-0.19
5,-10.64,-0.73,47.87,5.04,1.79,4.31,-0.78,-12.62,11.63,-0.19
6,-10.64,-0.73,47.87,3.03,0.81,5.37,-1.05,-12.62,11.63,-0.19
7,-10.64,-0.73,47.87,3.03,0.81,5.37,-1.05,-13.89,12.38,0.33
8,-9.96,-1.94,48.71,3.03,0.81,5.37,-1.05,-13.89,12.38,0.33
9,-9.96,-1.94,48.71,2.17,-0.18,4.28,-1.05,-13.89,12.38,0.33
10,-9.96,-1.94,48.71,2.17,-0.18,4.28,-2.39,-12.57,13.1,-0.9
11,-12.14,-2.44,47.33,2.17,-0.18,4.28,-2.39,-12.57,13.1,-0.9
12,-12.14,-2.44,47.33,0.32,1.08,2.58,-2.71,-12.57,13.1,-0.9
13,-9.97,-2.44,47.33,0.32,1.08,2.58,-2.71,-13.34,13.7,0.03
14,-9.97,-2.49,48.78,0.39,0.56,2.58,-2.71,-13.34,13.7,0.03
15,-9.97,-2.49,48.78,0.39,0.56,4.46,-3.22,-11.48,14.33,0.03
16,-8.93,-2.49,48.78,0.39,0.56,4.46,-3.22,-11.48,14.33,0.25
17,-8.93,-4.96,47.16,1.39,2.56,4.46,-3.22,-11.48,14.33,0.25
18,-8.93,-4.96,47.16,1.39,2.56,8.55,-6.83,-19.63,15.47,0.25
19,-97.85,-29.12,47.16,1.39,2.56,8.55,-6.83,-19.63,15.47,-20.72
20,-97.85,-29.12,54.99,-10.25,-19.37,-41.57,-6.83,-19.63,15.47,-20.72
21,-97.85,-29.12,54.99,-10.25,-19.37,-41.57,-29.06,-60.14,14.7,-20.72
22,-99.99,-29.12,54.99,-10.25,-19.37,-41.57,-29.06,-60.14,14.7,-0.24
23,-99.99,-91.53,51.92,-23.36,5.13,-41.57,-29.06,-60.14,14.7,-0.24
24,-99.99,-91.53,51.92,-23.36,5.13,-100.0,-59.4,-62.8,-0.05,-0.24

0,-9.22,-0.51,49.4,2.12,4.68,12.73,-0.54,-10.76,61.5,-0.79
1,-9.22,-0.51,49.4,2.12,4.68,12.73,-0.54,-10.76,63.29,-0.27
2,-8.53,-1.42,48.84,2.12,4.68,12.73,-0.54,-10.76,63.29,-0.27
3,-8.53,-1.42,48.84,4.21,4.19,16.36,-2.21,-10.76,63.29,-0.27
4,-8.53,-1.42,48.84,4.21,4.19,16.36,-2.21,-9.38,65.88,-0.23
5,-10.19,-4.28,47.56,1.82,4.19,16.36,-2.21,-9.38,65.88,-0.23
6,-10.19,-4.28,47.56,1.82,-3.78,22.1,-4.9,-11.2,65.88,-0.23
7,-12.76,-4.28,47.56,1.82,-3.78,22.1,-4.9,-11.2,68.88,-0.5
8,-12.76,-5.62,50.4,8.31,-0.01,22.1,-4.9,-11.2,68.88,-0.5
9,-12.76,-5.62,50.4,8.31,-0.01,25.59,-6.37,-15.47,73.42,-0.5
10,-16.06,-6.11,50.4,8.31,-0.01,25.59,-6.37,-15.47,73.42,-0.3
11,-16.06,-6.11,50.74,2.17,-3.19,18.81,-6.37,-15.47,73.42,-0.3
12,-16.06,-6.11,50.74,2.17,-3.19,18.81,-7.48,-16.65,77.33,-0.3
13,-13.15,-6.62,50.74,2.17,-3.19,18.81,-7.48,-16.65,77.33,-0.26
14,-13.15,-6.62,46.73,1.57,-0.07,16.1,-7.48,-16.65,77.33,-0.26
15,-13.15,-6.62,46.73,1.57,-0.07,16.1,-7.98,-15.55,79.94,1.0
16,-9.51,-8.42,44.04,1.57,-0.07,16.1,-7.98,-15.55,79.94,1.0
17,-9.51,-8.42,44.04,0.58,-1.32,17.51,-10.57,-15.55,79.94,1.0
18,-9.51,-8.42,44.04,0.58,-1.32,17.51,-10.57,-13.02,82.78,-0.38
19,-8.13,-15.9,46.08,2.28,-1.32,17.51,-10.57,-13.02,82.78,-0.38
20,-8.13,-15.9,46.08,2.28,7.42,22.22,-19.66,-12.42,82.78,-0.38
21,-99.93,-15.9,46.08,2.28,7.42,22.22,-19.66,-12.42,85.72,-0.33
22,-99.93,-39.2,72.89,-18.04,7.42,22.22,-19.66,-12.42,85.72,-0.33
23,-99.93,-39.2,72.89,-18.04,-16.84,-20.57,-35.73,-57.06,85.72,-0.33
24,-99.99,-39.2,72.89,-18.04,-16.84,-20.57,-35.73,-57.06,88.04,-0.16

0,-18.67,-6.99,49.43,2.91,0.45,6.99,-9.13,-20.02,144.45,-0.14
1,-18.67,-6.99,49.43,2.91,0.45,6.99,-8.0,-19.62,146.26,1.43
2,-13.5,-7.2,48.8,2.91,0.45,6.99,-8.0,-19.62,146.26,1.43
3,-13.5,-7.2,48.8,1.39,3.15,5.25,-8.03,-19.62,146.26,1.43
4,-13.5,-7.2,48.8,1.39,3.15,5.25,-8.03,-13.36,147.18,-0.62
5,-13.5,-5.45,48.34,1.46,3.15,5.25,-8.03,-13.36,147.18,-0.62
6,-13.5,-5.45,48.34,1.46,0.72,5.88,-6.55,-16.05,147.18,-0.62
7,-10.34,-5.45,48.34,1.46,0.72,5.88,-6.55,-16.05,148.15,-0.04
8,-10.34,-6.67,47.68,1.78,3.55,5.88,-6.55,-16.05,148.15,-0.04
9,-10.34,-6.67,47.68,1.78,3.55,3.65,-8.11,-12.19,148.8,-0.04
10,-12.56,-6.39,47.68,1.78,3.55,3.65,-8.11,-12.19,148.8,-0.31
11,-12.56,-6.39,49.22,-0.21,-1.55,3.65,-8.11,-12.19,148.8,-0.31
12,-12.56,-6.39,49.22,-0.21,-1.55,6.4,-7.59,-14.82,149.61,0.07
13,-12.23,-7.1,47.14,-0.21,-1.55,6.4,-7.59,-14.82,149.61,0.07
14,-12.23,-7.1,47.14,-0.68,3.0,6.17,-8.29,-14.82,149.61,0.07
15,-12.23,-7.1,47.14,-0.68,3.0,6.17,-8.29,-14.3,150.68,0.02
16,-11.17,-6.47,45.07,-0.89,3.0,6.17,-8.29,-14.3,150.68,0.02
17,-11.17,-6.47,45.07,-0.89,0.84,8.32,-7.77,-14.52,150.68,0.02
18,-9.9,-6.47,45.07,-0.89,0.84,8.32,-7.77,-14.52,152.01,0.12
19,-9.9,-7.22,47.65,1.93,2.06,8.32,-7.77,-14.52,152.01,0.12
20,-9.9,-7.22,47.65,1.93,2.06,10.47,-9.01,-12.07,153.36,0.12
21,-26.21,-7.22,47.65,1.93,2.06,10.47,-9.01,-12.07,153.36,-1.36
22,-26.21,-10.95,52.15,2.51,1.16,10.47,-9.01,-12.07,153.36,-1.36
23,-26.21,-10.95,52.15,2.51,1.16,9.89,-11.48,-30.91,155.51,-1.36
24,-99.99,-10.95,52.15,2.51,1.16,9.89,-11.48,-30.91,155.51,-23.0

0,-14.99,-5.78,48.08,-0.54,0.8,7.55,-7.58,-18.26,-164.65,-0.2
1,-14.99,-5.78,48.08,-0.54,0.8,6.05,-6.76,-16.82,-163.62,-0.2
2,-12.55,-5.81,45.68,-0.54,0.8,6.05,-6.76,-16.82,-163.62,-0.49
3,-12.55,-5.81,45.68,-0.3,3.33,3.95,-6.97,-16.82,-163.62,-0.49
4,-12.55,-5.81,45.68,-0.3,3.33,3.95,-6.97,-15.54,-162.79,0.23
5,-12.69,-5.46,47.17,0.31,3.33,3.95,-6.97,-15.54,-162.79,0.23
6,-12.69,-5.46,47.17,0.31,0.75,4.81,-6.8,-15.22,-162.79,0.23
7,-12.69,-5.46,47.17,0.31,0.75,4.81,-6.8,-15.22,-162.11,-0.17
8,-15.02,-5.41,45.6,-0.1,1.15,4.81,-6.8,-15.22,-162.11,-0.17
9,-15.02,-5.41,45.6,-0.1,1.15,4.91,-6.98,-18.01,-161.23,-0.17
10,-14.22,-6.8,45.6,-0.1,1.15,4.91,-6.98,-18.01,-161.23,-0.32
11,-14.22,-6.8,48.01,0.22,2.01,4.91,-6.98,-18.01,-161.23,-0.32
12,-14.22,-6.8,48.01,0.22,2.01,2.11,-7.63,-14.44,-160.7,-0.32
13,-11.93,-6.59,48.01,0.22,2.01,2.11,-7.63,-14.44,-160.7,-0.11
14,-11.93,-6.59,47.81,0.11,1.81,5.55,-7.63,-14.44,-160.7,-0.11
15,-11.93,-6.59,47.81,0.11,1.81,5.55,-7.91,-15.76,-160.08,-0.11
16,-12.61,-7.42,47.83,0.11,1.81,5.55,-7.91,-15.76,-160.08,-1.48
17,-12.61,-7.42,47.83,-0.63,2.04,2.95,-7.91,-15.76,-160.08,-1.48
18,-12.61,-7.42,47.83,-0.63,2.04,2.95,-8.54,-13.61,-159.47,-0.25
19,-11.81,-7.29,45.01,-0.63,2.04,2.95,-8.54,-13.61,-159.47,-0.25
20,-11.81,-7.29,45.01,-1.11,3.15,6.9,-9.45,-13.61,-159.47,-0.25
21,-11.81,-7.29,45.01,-1.11,3.15,6.9,-9.45,-15.36,-158.65,-1.75
22,-31.48,-13.95,61.38,-0.82,3.15,6.9,-9.45,-15.36,-158.65,-1.75
23,-31.48,-13.95,61.38,-0.82,0.93,5.47,-13.01,-38.99,-158.65,-1.75
24,-99.99,-13.95,61.38,-0.82,0.93,5.47,-13.01,-38.99,-157.37,-23.61
